file_version,subject,condition,session,task_start_time,block,trial,phase,event_name,event_code,wall_clock,t_rel_sec,duration_to_next,rt,value_shown,entered_value,correct,key_name,device,note,json,screen_index,ifi,refresh_hz,pd_used
Sergio_G01_CNS-LLF5HT7Y0,s01,offmed_offstim,20260322_163314,2026-03-22 16:33:24.561885,NaN,NaN,,MIC_NOISEFLOOR,6,2026-03-22 16:33:27.961354,3.399171,4.134084,,,,,,keyboard,,{},2,NaN,NaN,1
Sergio_G01_CNS-LLF5HT7Y0,s01,offmed_offstim,20260322_163314,2026-03-22 16:33:24.561885,NaN,NaN,,MIC_REC_SPEECH,7,2026-03-22 16:33:32.095223,7.533256,6.658021,,,,,,keyboard,,{},2,NaN,NaN,1
Sergio_G01_CNS-LLF5HT7Y0,s01,offmed_offstim,20260322_163314,2026-03-22 16:33:24.561885,NaN,NaN,,SESSION_START,1,2026-03-22 16:34:03.046771,38.484653,0.001013,,,,,,keyboard,,{},2,0.016667,60.000000,1
Sergio_G01_CNS-LLF5HT7Y0,s01,offmed_offstim,20260322_163314,2026-03-22 16:33:24.561885,NaN,NaN,,BLOCK_START,10,2026-03-22 16:34:03.047431,38.485666,0.052170,,,,,,keyboard,,{},2,0.016667,60.000000,1
Sergio_G01_CNS-LLF5HT7Y0,s01,offmed_offstim,20260322_163314,2026-03-22 16:33:24.561885,NaN,0,reading,START_PAGE_ON,4,2026-03-22 16:34:03.143723,38.537837,0.055768,,,,,,keyboard,,"{""pd_used"":0}",2,0.016667,60.000000,1
Sergio_G01_CNS-LLF5HT7Y0,s01,offmed_offstim,20260322_163314,2026-03-22 16:33:24.561885,NaN,0,reading,START_PAGE_ON,4,2026-03-22 16:34:03.143723,38.537837,3.357775,,,,,,keyboard,,"{""pd_used"":0}",2,0.016667,60.000000,1
Sergio_G01_CNS-LLF5HT7Y0,s01,offmed_offstim,20260322_163314,2026-03-22 16:33:24.561885,NaN,0,reading,START_PAGE_ON,4,2026-03-22 16:34:03.143723,38.537837,3.730849,,,,,,keyboard,,"{""pd_used"":0}",2,0.016667,60.000000,1
Sergio_G01_CNS-LLF5HT7Y0,s01,offmed_offstim,20260322_163314,2026-03-22 16:33:24.561885,NaN,0,reading,READING_START,23,2026-03-22 16:34:06.830740,42.268685,0.059207,,,,,,keyboard,,{},2,0.016667,60.000000,1
Sergio_G01_CNS-LLF5HT7Y0,s01,offmed_offstim,20260322_163314,2026-03-22 16:33:24.561885,NaN,0,reading,DIGIT_READ1_ON,101,2026-03-22 16:34:06.933376,42.327892,0.496017,,0,,,,keyboard,digit#1 shown,"{""value"":0,""note"":""digit#1 shown"",""pd_used"":1}",2,0.016667,60.000000,1
Sergio_G01_CNS-LLF5HT7Y0,s01,offmed_offstim,20260322_163314,2026-03-22 16:33:24.561885,NaN,0,reading,PROBE_COUNT_OK_1,71,2026-03-22 16:34:07.935068,42.823909,0.599794,4.294315,slot#1,NaN,,,keyboard,probe_digit#1,"{""value"":""slot#1"",""entered"":null,""rt"":4.2943150999999489,""note"":""probe_digit#1""}",2,0.016667,60.000000,1
Sergio_G01_CNS-LLF5HT7Y0,s01,offmed_offstim,20260322_163314,2026-03-22 16:33:24.561885,NaN,0,reading,DIGIT_READ1_OFF,116,2026-03-22 16:34:08.030137,43.423703,0.000000,,0,,,,keyboard,digit#1 off,"{""value"":0,""note"":""digit#1 off"",""pd_used"":0}",2,0.016667,60.000000,1
Sergio_G01_CNS-LLF5HT7Y0,s01,offmed_offstim,20260322_163314,2026-03-22 16:33:24.561885,NaN,0,reading,POSTREAD_FIX1_ON,201,2026-03-22 16:34:08.030914,43.423703,1.938789,,,,,,keyboard,after digit#1,"{""note"":""after digit#1""}",2,0.016667,60.000000,1
Sergio_G01_CNS-LLF5HT7Y0,s01,offmed_offstim,20260322_163314,2026-03-22 16:33:24.561885,NaN,0,reading,POSTREAD_FIX1_OFF,216,2026-03-22 16:34:09.966917,45.362492,0.059054,,,,,,keyboard,after digit#1,"{""note"":""after digit#1"",""pd_used"":0}",2,0.016667,60.000000,1
Sergio_G01_CNS-LLF5HT7Y0,s01,offmed_offstim,20260322_163314,2026-03-22 16:33:24.561885,NaN,0,reading,DIGIT_READ2_ON,102,2026-03-22 16:34:10.025679,45.421546,0.493370,,8,,,,keyboard,digit#2 shown,"{""value"":8,""note"":""digit#2 shown"",""pd_used"":1}",2,0.016667,60.000000,1
Sergio_G01_CNS-LLF5HT7Y0,s01,offmed_offstim,20260322_163314,2026-03-22 16:33:24.561885,NaN,0,reading,PROBE_COUNT_OK_2,71,2026-03-22 16:34:10.925406,45.914916,0.499201,7.385323,slot#2,NaN,,,keyboard,probe_digit#2,"{""value"":""slot#2"",""entered"":null,""rt"":7.3853228999996645,""note"":""probe_digit#2""}",2,0.016667,60.000000,1
Sergio_G01_CNS-LLF5HT7Y0,s01,offmed_offstim,20260322_163314,2026-03-22 16:33:24.561885,NaN,0,reading,DIGIT_READ2_OFF,117,2026-03-22 16:34:11.019013,46.414118,0.000000,,8,,,,keyboard,digit#2 off,"{""value"":8,""note"":""digit#2 off"",""pd_used"":0}",2,0.016667,60.000000,1
Sergio_G01_CNS-LLF5HT7Y0,s01,offmed_offstim,20260322_163314,2026-03-22 16:33:24.561885,NaN,0,reading,POSTREAD_FIX2_ON,202,2026-03-22 16:34:11.019799,46.414118,1.920747,,,,,,keyboard,after digit#2,"{""note"":""after digit#2""}",2,0.016667,60.000000,1
Sergio_G01_CNS-LLF5HT7Y0,s01,offmed_offstim,20260322_163314,2026-03-22 16:33:24.561885,NaN,0,reading,POSTREAD_FIX2_OFF,217,2026-03-22 16:34:12.938718,48.334865,0.066726,,,,,,keyboard,after digit#2,"{""note"":""after digit#2"",""pd_used"":0}",2,0.016667,60.000000,1
Sergio_G01_CNS-LLF5HT7Y0,s01,offmed_offstim,20260322_163314,2026-03-22 16:33:24.561885,NaN,0,reading,DIGIT_READ3_ON,103,2026-03-22 16:34:13.005701,48.401591,0.735762,,3,,,,keyboard,digit#3 shown,"{""value"":3,""note"":""digit#3 shown"",""pd_used"":1}",2,0.016667,60.000000,1
Sergio_G01_CNS-LLF5HT7Y0,s01,offmed_offstim,20260322_163314,2026-03-22 16:33:24.561885,NaN,0,reading,PROBE_COUNT_OK_3,71,2026-03-22 16:34:14.174909,49.137353,0.524949,10.607759,slot#3,NaN,,,keyboard,probe_digit#3,"{""value"":""slot#3"",""entered"":null,""rt"":10.607759499999702,""note"":""probe_digit#3""}",2,0.016667,60.000000,1
Sergio_G01_CNS-LLF5HT7Y0,s01,offmed_offstim,20260322_163314,2026-03-22 16:33:24.561885,NaN,0,reading,DIGIT_READ3_OFF,118,2026-03-22 16:34:14.268037,49.662302,0.000000,,3,,,,keyboard,digit#3 off,"{""value"":3,""note"":""digit#3 off"",""pd_used"":0}",2,0.016667,60.000000,1
Sergio_G01_CNS-LLF5HT7Y0,s01,offmed_offstim,20260322_163314,2026-03-22 16:33:24.561885,NaN,0,reading,POSTREAD_FIX3_ON,203,2026-03-22 16:34:14.268890,49.662302,1.572494,,,,,,keyboard,after digit#3,"{""note"":""after digit#3""}",2,0.016667,60.000000,1
Sergio_G01_CNS-LLF5HT7Y0,s01,offmed_offstim,20260322_163314,2026-03-22 16:33:24.561885,NaN,0,reading,POSTREAD_FIX3_OFF,218,2026-03-22 16:34:15.839278,51.234796,0.066227,,,,,,keyboard,after digit#3,"{""note"":""after digit#3"",""pd_used"":0}",2,0.016667,60.000000,1
Sergio_G01_CNS-LLF5HT7Y0,s01,offmed_offstim,20260322_163314,2026-03-22 16:33:24.561885,NaN,0,reading,DIGIT_READ4_ON,104,2026-03-22 16:34:15.904296,51.301023,1.114481,,2,,,,keyboard,digit#4 shown,"{""value"":2,""note"":""digit#4 shown"",""pd_used"":1}",2,0.016667,60.000000,1
Sergio_G01_CNS-LLF5HT7Y0,s01,offmed_offstim,20260322_163314,2026-03-22 16:33:24.561885,NaN,0,reading,PROBE_COUNT_OK_4,71,2026-03-22 16:34:17.491704,52.415503,0.563279,13.885910,slot#4,NaN,,,keyboard,probe_digit#4,"{""value"":""slot#4"",""entered"":null,""rt"":13.88590989999966,""note"":""probe_digit#4""}",2,0.016667,60.000000,1
Sergio_G01_CNS-LLF5HT7Y0,s01,offmed_offstim,20260322_163314,2026-03-22 16:33:24.561885,NaN,0,reading,DIGIT_READ4_OFF,119,2026-03-22 16:34:17.585674,52.978782,0.000000,,2,,,,keyboard,digit#4 off,"{""value"":2,""note"":""digit#4 off"",""pd_used"":0}",2,0.016667,60.000000,1
Sergio_G01_CNS-LLF5HT7Y0,s01,offmed_offstim,20260322_163314,2026-03-22 16:33:24.561885,NaN,0,reading,POSTREAD_FIX4_ON,204,2026-03-22 16:34:17.587347,52.978782,1.740423,,,,,,keyboard,after digit#4,"{""note"":""after digit#4""}",2,0.016667,60.000000,1
Sergio_G01_CNS-LLF5HT7Y0,s01,offmed_offstim,20260322_163314,2026-03-22 16:33:24.561885,NaN,0,reading,POSTREAD_FIX4_OFF,219,2026-03-22 16:34:19.323027,54.719205,0.064779,,,,,,keyboard,after digit#4,"{""note"":""after digit#4"",""pd_used"":0}",2,0.016667,60.000000,1
Sergio_G01_CNS-LLF5HT7Y0,s01,offmed_offstim,20260322_163314,2026-03-22 16:33:24.561885,NaN,0,reading,DIGIT_READ5_ON,105,2026-03-22 16:34:19.388788,54.783984,0.602844,,9,,,,keyboard,digit#5 shown,"{""value"":9,""note"":""digit#5 shown"",""pd_used"":1}",2,0.016667,60.000000,1
Sergio_G01_CNS-LLF5HT7Y0,s01,offmed_offstim,20260322_163314,2026-03-22 16:33:24.561885,NaN,0,reading,PROBE_COUNT_OK_5,71,2026-03-22 16:34:20.539486,55.386828,0.640816,16.857235,slot#5,NaN,,,keyboard,probe_digit#5,"{""value"":""slot#5"",""entered"":null,""rt"":16.857234699999935,""note"":""probe_digit#5""}",2,0.016667,60.000000,1
Sergio_G01_CNS-LLF5HT7Y0,s01,offmed_offstim,20260322_163314,2026-03-22 16:33:24.561885,NaN,0,reading,DIGIT_READ5_OFF,120,2026-03-22 16:34:20.633489,56.027644,0.000000,,9,,,,keyboard,digit#5 off,"{""value"":9,""note"":""digit#5 off"",""pd_used"":0}",2,0.016667,60.000000,1
Sergio_G01_CNS-LLF5HT7Y0,s01,offmed_offstim,20260322_163314,2026-03-22 16:33:24.561885,NaN,0,reading,POSTREAD_FIX5_ON,205,2026-03-22 16:34:20.634299,56.027644,1.702203,,,,,,keyboard,after digit#5,"{""note"":""after digit#5""}",2,0.016667,60.000000,1
Sergio_G01_CNS-LLF5HT7Y0,s01,offmed_offstim,20260322_163314,2026-03-22 16:33:24.561885,NaN,0,reading,POSTREAD_FIX5_OFF,220,2026-03-22 16:34:22.333329,57.729847,0.057438,,,,,,keyboard,after digit#5,"{""note"":""after digit#5"",""pd_used"":0}",2,0.016667,60.000000,1
Sergio_G01_CNS-LLF5HT7Y0,s01,offmed_offstim,20260322_163314,2026-03-22 16:33:24.561885,NaN,0,reading,DIGIT_READ6_ON,106,2026-03-22 16:34:22.391002,57.787285,0.790100,,3,,,,keyboard,digit#6 shown,"{""value"":3,""note"":""digit#6 shown"",""pd_used"":1}",2,0.016667,60.000000,1
Sergio_G01_CNS-LLF5HT7Y0,s01,offmed_offstim,20260322_163314,2026-03-22 16:33:24.561885,NaN,0,reading,PROBE_COUNT_OK_6,71,2026-03-22 16:34:23.713329,58.577385,0.624014,20.047791,slot#6,NaN,,,keyboard,probe_digit#6,"{""value"":""slot#6"",""entered"":null,""rt"":20.047790999999961,""note"":""probe_digit#6""}",2,0.016667,60.000000,1
Sergio_G01_CNS-LLF5HT7Y0,s01,offmed_offstim,20260322_163314,2026-03-22 16:33:24.561885,NaN,0,reading,DIGIT_READ6_OFF,121,2026-03-22 16:34:23.806986,59.201398,0.000000,,3,,,,keyboard,digit#6 off,"{""value"":3,""note"":""digit#6 off"",""pd_used"":0}",2,0.016667,60.000000,1
Sergio_G01_CNS-LLF5HT7Y0,s01,offmed_offstim,20260322_163314,2026-03-22 16:33:24.561885,NaN,0,reading,POSTREAD_FIX6_ON,206,2026-03-22 16:34:23.808193,59.201398,1.604250,,,,,,keyboard,after digit#6,"{""note"":""after digit#6""}",2,0.016667,60.000000,1
Sergio_G01_CNS-LLF5HT7Y0,s01,offmed_offstim,20260322_163314,2026-03-22 16:33:24.561885,NaN,0,reading,POSTREAD_FIX6_OFF,221,2026-03-22 16:34:25.409885,60.805649,0.061010,,,,,,keyboard,after digit#6,"{""note"":""after digit#6"",""pd_used"":0}",2,0.016667,60.000000,1
Sergio_G01_CNS-LLF5HT7Y0,s01,offmed_offstim,20260322_163314,2026-03-22 16:33:24.561885,NaN,0,reading,DIGIT_READ7_ON,107,2026-03-22 16:34:25.470664,60.866659,0.649632,,2,,,,keyboard,digit#7 shown,"{""value"":2,""note"":""digit#7 shown"",""pd_used"":1}",2,0.016667,60.000000,1
Sergio_G01_CNS-LLF5HT7Y0,s01,offmed_offstim,20260322_163314,2026-03-22 16:33:24.561885,NaN,0,reading,PROBE_COUNT_OK_7,71,2026-03-22 16:34:26.574230,61.516291,0.546485,22.986697,slot#7,NaN,,,keyboard,probe_digit#7,"{""value"":""slot#7"",""entered"":null,""rt"":22.986697299999832,""note"":""probe_digit#7""}",2,0.016667,60.000000,1
Sergio_G01_CNS-LLF5HT7Y0,s01,offmed_offstim,20260322_163314,2026-03-22 16:33:24.561885,NaN,0,reading,DIGIT_READ7_OFF,122,2026-03-22 16:34:26.669447,62.062776,0.000000,,2,,,,keyboard,digit#7 off,"{""value"":2,""note"":""digit#7 off"",""pd_used"":0}",2,0.016667,60.000000,1
Sergio_G01_CNS-LLF5HT7Y0,s01,offmed_offstim,20260322_163314,2026-03-22 16:33:24.561885,NaN,0,reading,POSTREAD_FIX7_ON,207,2026-03-22 16:34:26.671045,62.062776,1.976078,,,,,,keyboard,after digit#7,"{""note"":""after digit#7""}",2,0.016667,60.000000,1
Sergio_G01_CNS-LLF5HT7Y0,s01,offmed_offstim,20260322_163314,2026-03-22 16:33:24.561885,NaN,0,reading,POSTREAD_FIX7_OFF,222,2026-03-22 16:34:28.642887,64.038854,0.061591,,,,,,keyboard,after digit#7,"{""note"":""after digit#7"",""pd_used"":0}",2,0.016667,60.000000,1
Sergio_G01_CNS-LLF5HT7Y0,s01,offmed_offstim,20260322_163314,2026-03-22 16:33:24.561885,NaN,0,reading,DIGIT_READ8_ON,108,2026-03-22 16:34:28.704506,64.100444,0.626467,,4,,,,keyboard,digit#8 shown,"{""value"":4,""note"":""digit#8 shown"",""pd_used"":1}",2,0.016667,60.000000,1
Sergio_G01_CNS-LLF5HT7Y0,s01,offmed_offstim,20260322_163314,2026-03-22 16:33:24.561885,NaN,0,reading,PROBE_COUNT_OK_8,71,2026-03-22 16:34:29.915392,64.726912,0.676193,26.197318,slot#8,NaN,,,keyboard,probe_digit#8,"{""value"":""slot#8"",""entered"":null,""rt"":26.197317999999996,""note"":""probe_digit#8""}",2,0.016667,60.000000,1
Sergio_G01_CNS-LLF5HT7Y0,s01,offmed_offstim,20260322_163314,2026-03-22 16:33:24.561885,NaN,0,reading,DIGIT_READ8_OFF,123,2026-03-22 16:34:30.009085,65.403104,0.000000,,4,,,,keyboard,digit#8 off,"{""value"":4,""note"":""digit#8 off"",""pd_used"":0}",2,0.016667,60.000000,1
Sergio_G01_CNS-LLF5HT7Y0,s01,offmed_offstim,20260322_163314,2026-03-22 16:33:24.561885,NaN,0,reading,POSTREAD_FIX8_ON,208,2026-03-22 16:34:30.009820,65.403104,1.555909,,,,,,keyboard,after digit#8,"{""note"":""after digit#8""}",2,0.016667,60.000000,1
Sergio_G01_CNS-LLF5HT7Y0,s01,offmed_offstim,20260322_163314,2026-03-22 16:33:24.561885,NaN,0,reading,POSTREAD_FIX8_OFF,223,2026-03-22 16:34:31.563281,66.959014,0.058274,,,,,,keyboard,after digit#8,"{""note"":""after digit#8"",""pd_used"":0}",2,0.016667,60.000000,1
Sergio_G01_CNS-LLF5HT7Y0,s01,offmed_offstim,20260322_163314,2026-03-22 16:33:24.561885,NaN,0,reading,DIGIT_READ9_ON,109,2026-03-22 16:34:31.620931,67.017288,0.700793,,1,,,,keyboard,digit#9 shown,"{""value"":1,""note"":""digit#9 shown"",""pd_used"":1}",2,0.016667,60.000000,1
Sergio_G01_CNS-LLF5HT7Y0,s01,offmed_offstim,20260322_163314,2026-03-22 16:33:24.561885,NaN,0,reading,PROBE_COUNT_OK_9,71,2026-03-22 16:34:32.907435,67.718081,0.676212,29.188488,slot#9,NaN,,,keyboard,probe_digit#9,"{""value"":""slot#9"",""entered"":null,""rt"":29.188487599999917,""note"":""probe_digit#9""}",2,0.016667,60.000000,1
Sergio_G01_CNS-LLF5HT7Y0,s01,offmed_offstim,20260322_163314,2026-03-22 16:33:24.561885,NaN,0,reading,DIGIT_READ9_OFF,124,2026-03-22 16:34:33.001454,68.394293,0.000000,,1,,,,keyboard,digit#9 off,"{""value"":1,""note"":""digit#9 off"",""pd_used"":0}",2,0.016667,60.000000,1
Sergio_G01_CNS-LLF5HT7Y0,s01,offmed_offstim,20260322_163314,2026-03-22 16:33:24.561885,NaN,0,reading,POSTREAD_FIX9_ON,209,2026-03-22 16:34:33.003255,68.394293,1.939838,,,,,,keyboard,after digit#9,"{""note"":""after digit#9""}",2,0.016667,60.000000,1
Sergio_G01_CNS-LLF5HT7Y0,s01,offmed_offstim,20260322_163314,2026-03-22 16:33:24.561885,NaN,0,reading,POSTREAD_FIX9_OFF,224,2026-03-22 16:34:34.937942,70.334131,0.066709,,,,,,keyboard,after digit#9,"{""note"":""after digit#9"",""pd_used"":0}",2,0.016667,60.000000,1
Sergio_G01_CNS-LLF5HT7Y0,s01,offmed_offstim,20260322_163314,2026-03-22 16:33:24.561885,NaN,0,reading,DIGIT_READ10_ON,110,2026-03-22 16:34:35.005057,70.400839,0.544378,,4,,,,keyboard,digit#10 shown,"{""value"":4,""note"":""digit#10 shown"",""pd_used"":1}",2,0.016667,60.000000,1
Sergio_G01_CNS-LLF5HT7Y0,s01,offmed_offstim,20260322_163314,2026-03-22 16:33:24.561885,NaN,0,reading,PROBE_COUNT_OK_10,71,2026-03-22 16:34:36.132005,70.945218,0.674826,32.415624,slot#10,NaN,,,keyboard,probe_digit#10,"{""value"":""slot#10"",""entered"":null,""rt"":32.415624099999604,""note"":""probe_digit#10""}",2,0.016667,60.000000,1
Sergio_G01_CNS-LLF5HT7Y0,s01,offmed_offstim,20260322_163314,2026-03-22 16:33:24.561885,NaN,0,reading,DIGIT_READ10_OFF,125,2026-03-22 16:34:36.225740,71.620043,0.000000,,4,,,,keyboard,digit#10 off,"{""value"":4,""note"":""digit#10 off"",""pd_used"":0}",2,0.016667,60.000000,1
Sergio_G01_CNS-LLF5HT7Y0,s01,offmed_offstim,20260322_163314,2026-03-22 16:33:24.561885,NaN,0,reading,POSTREAD_FIX10_ON,210,2026-03-22 16:34:36.226516,71.620043,1.787836,,,,,,keyboard,after digit#10,"{""note"":""after digit#10""}",2,0.016667,60.000000,1
Sergio_G01_CNS-LLF5HT7Y0,s01,offmed_offstim,20260322_163314,2026-03-22 16:33:24.561885,NaN,0,reading,POSTREAD_FIX10_OFF,225,2026-03-22 16:34:38.011865,73.407880,0.058666,,,,,,keyboard,after digit#10,"{""note"":""after digit#10"",""pd_used"":0}",2,0.016667,60.000000,1
Sergio_G01_CNS-LLF5HT7Y0,s01,offmed_offstim,20260322_163314,2026-03-22 16:33:24.561885,NaN,0,reading,DIGIT_READ11_ON,111,2026-03-22 16:34:38.070251,73.466545,0.507611,,1,,,,keyboard,digit#11 shown,"{""value"":1,""note"":""digit#11 shown"",""pd_used"":1}",2,0.016667,60.000000,1
Sergio_G01_CNS-LLF5HT7Y0,s01,offmed_offstim,20260322_163314,2026-03-22 16:33:24.561885,NaN,0,reading,PROBE_COUNT_OK_11,71,2026-03-22 16:34:39.176351,73.974156,0.691791,35.444563,slot#11,NaN,,,keyboard,probe_digit#11,"{""value"":""slot#11"",""entered"":null,""rt"":35.444562799999858,""note"":""probe_digit#11""}",2,0.016667,60.000000,1
Sergio_G01_CNS-LLF5HT7Y0,s01,offmed_offstim,20260322_163314,2026-03-22 16:33:24.561885,NaN,0,reading,DIGIT_READ11_OFF,126,2026-03-22 16:34:39.271087,74.665947,0.000000,,1,,,,keyboard,digit#11 off,"{""value"":1,""note"":""digit#11 off"",""pd_used"":0}",2,0.016667,60.000000,1
Sergio_G01_CNS-LLF5HT7Y0,s01,offmed_offstim,20260322_163314,2026-03-22 16:33:24.561885,NaN,0,reading,POSTREAD_FIX11_ON,211,2026-03-22 16:34:39.271843,74.665947,1.904177,,,,,,keyboard,after digit#11,"{""note"":""after digit#11""}",2,0.016667,60.000000,1
Sergio_G01_CNS-LLF5HT7Y0,s01,offmed_offstim,20260322_163314,2026-03-22 16:33:24.561885,NaN,0,reading,POSTREAD_FIX11_OFF,226,2026-03-22 16:34:41.175568,76.570124,0.063968,,,,,,keyboard,after digit#11,"{""note"":""after digit#11"",""pd_used"":0}",2,0.016667,60.000000,1
Sergio_G01_CNS-LLF5HT7Y0,s01,offmed_offstim,20260322_163314,2026-03-22 16:33:24.561885,NaN,0,reading,DIGIT_READ12_ON,112,2026-03-22 16:34:41.238512,76.634093,0.521127,,3,,,,keyboard,digit#12 shown,"{""value"":3,""note"":""digit#12 shown"",""pd_used"":1}",2,0.016667,60.000000,1
Sergio_G01_CNS-LLF5HT7Y0,s01,offmed_offstim,20260322_163314,2026-03-22 16:33:24.561885,NaN,0,reading,PROBE_COUNT_OK_12,71,2026-03-22 16:34:42.268038,77.155220,0.600366,38.625626,slot#12,NaN,,,keyboard,probe_digit#12,"{""value"":""slot#12"",""entered"":null,""rt"":38.625626199999715,""note"":""probe_digit#12""}",2,0.016667,60.000000,1
Sergio_G01_CNS-LLF5HT7Y0,s01,offmed_offstim,20260322_163314,2026-03-22 16:33:24.561885,NaN,0,reading,DIGIT_READ12_OFF,127,2026-03-22 16:34:42.361578,77.755586,0.000000,,3,,,,keyboard,digit#12 off,"{""value"":3,""note"":""digit#12 off"",""pd_used"":0}",2,0.016667,60.000000,1
Sergio_G01_CNS-LLF5HT7Y0,s01,offmed_offstim,20260322_163314,2026-03-22 16:33:24.561885,NaN,0,reading,POSTREAD_FIX12_ON,212,2026-03-22 16:34:42.362262,77.755586,1.656861,,,,,,keyboard,after digit#12,"{""note"":""after digit#12""}",2,0.016667,60.000000,1
Sergio_G01_CNS-LLF5HT7Y0,s01,offmed_offstim,20260322_163314,2026-03-22 16:33:24.561885,NaN,0,reading,POSTREAD_FIX12_OFF,227,2026-03-22 16:34:44.017372,79.412446,0.063241,,,,,,keyboard,after digit#12,"{""note"":""after digit#12"",""pd_used"":0}",2,0.016667,60.000000,1
Sergio_G01_CNS-LLF5HT7Y0,s01,offmed_offstim,20260322_163314,2026-03-22 16:33:24.561885,NaN,0,reading,DIGIT_READ13_ON,113,2026-03-22 16:34:44.080259,79.475687,0.481081,,6,,,,keyboard,digit#13 shown,"{""value"":6,""note"":""digit#13 shown"",""pd_used"":1}",2,0.016667,60.000000,1
Sergio_G01_CNS-LLF5HT7Y0,s01,offmed_offstim,20260322_163314,2026-03-22 16:33:24.561885,NaN,0,reading,PROBE_COUNT_OK_13,71,2026-03-22 16:34:44.978785,79.956768,0.513838,41.427174,slot#13,NaN,,,keyboard,probe_digit#13,"{""value"":""slot#13"",""entered"":null,""rt"":41.427174199999627,""note"":""probe_digit#13""}",2,0.016667,60.000000,1
Sergio_G01_CNS-LLF5HT7Y0,s01,offmed_offstim,20260322_163314,2026-03-22 16:33:24.561885,NaN,0,reading,DIGIT_READ13_OFF,128,2026-03-22 16:34:45.074505,80.470606,0.000000,,6,,,,keyboard,digit#13 off,"{""value"":6,""note"":""digit#13 off"",""pd_used"":0}",2,0.016667,60.000000,1
Sergio_G01_CNS-LLF5HT7Y0,s01,offmed_offstim,20260322_163314,2026-03-22 16:33:24.561885,NaN,0,reading,POSTREAD_FIX13_ON,213,2026-03-22 16:34:45.075251,80.470606,1.664922,,,,,,keyboard,after digit#13,"{""note"":""after digit#13""}",2,0.016667,60.000000,1
Sergio_G01_CNS-LLF5HT7Y0,s01,offmed_offstim,20260322_163314,2026-03-22 16:33:24.561885,NaN,0,reading,POSTREAD_FIX13_OFF,228,2026-03-22 16:34:46.740634,82.135528,0.065102,,,,,,keyboard,after digit#13,"{""note"":""after digit#13"",""pd_used"":0}",2,0.016667,60.000000,1
Sergio_G01_CNS-LLF5HT7Y0,s01,offmed_offstim,20260322_163314,2026-03-22 16:33:24.561885,NaN,0,reading,DIGIT_READ14_ON,114,2026-03-22 16:34:46.806204,82.200630,0.524198,,7,,,,keyboard,digit#14 shown,"{""value"":7,""note"":""digit#14 shown"",""pd_used"":1}",2,0.016667,60.000000,1
Sergio_G01_CNS-LLF5HT7Y0,s01,offmed_offstim,20260322_163314,2026-03-22 16:33:24.561885,NaN,0,reading,PROBE_COUNT_OK_14,71,2026-03-22 16:34:47.859880,82.724829,0.624111,44.195235,slot#14,NaN,,,keyboard,probe_digit#14,"{""value"":""slot#14"",""entered"":null,""rt"":44.195235099999991,""note"":""probe_digit#14""}",2,0.016667,60.000000,1
Sergio_G01_CNS-LLF5HT7Y0,s01,offmed_offstim,20260322_163314,2026-03-22 16:33:24.561885,NaN,0,reading,DIGIT_READ14_OFF,129,2026-03-22 16:34:47.954163,83.348940,0.000000,,7,,,,keyboard,digit#14 off,"{""value"":7,""note"":""digit#14 off"",""pd_used"":0}",2,0.016667,60.000000,1
Sergio_G01_CNS-LLF5HT7Y0,s01,offmed_offstim,20260322_163314,2026-03-22 16:33:24.561885,NaN,0,reading,POSTREAD_FIX14_ON,214,2026-03-22 16:34:47.954855,83.348940,1.720132,,,,,,keyboard,after digit#14,"{""note"":""after digit#14""}",2,0.016667,60.000000,1
Sergio_G01_CNS-LLF5HT7Y0,s01,offmed_offstim,20260322_163314,2026-03-22 16:33:24.561885,NaN,0,reading,POSTREAD_FIX14_OFF,229,2026-03-22 16:34:49.674564,85.069071,0.064739,,,,,,keyboard,after digit#14,"{""note"":""after digit#14"",""pd_used"":0}",2,0.016667,60.000000,1
Sergio_G01_CNS-LLF5HT7Y0,s01,offmed_offstim,20260322_163314,2026-03-22 16:33:24.561885,NaN,0,reading,DIGIT_READ15_ON,115,2026-03-22 16:34:49.739043,85.133810,0.532328,,2,,,,keyboard,digit#15 shown,"{""value"":2,""note"":""digit#15 shown"",""pd_used"":1}",2,0.016667,60.000000,1
Sergio_G01_CNS-LLF5HT7Y0,s01,offmed_offstim,20260322_163314,2026-03-22 16:33:24.561885,NaN,0,reading,PROBE_COUNT_OK_15,71,2026-03-22 16:34:50.811182,85.666139,0.633839,47.136545,slot#15,NaN,,,keyboard,probe_digit#15,"{""value"":""slot#15"",""entered"":null,""rt"":47.1365452,""note"":""probe_digit#15""}",2,0.016667,60.000000,1
Sergio_G01_CNS-LLF5HT7Y0,s01,offmed_offstim,20260322_163314,2026-03-22 16:33:24.561885,NaN,0,reading,DIGIT_READ15_OFF,130,2026-03-22 16:34:50.905998,86.299978,0.000000,,2,,,,keyboard,digit#15 off,"{""value"":2,""note"":""digit#15 off"",""pd_used"":0}",2,0.016667,60.000000,1
Sergio_G01_CNS-LLF5HT7Y0,s01,offmed_offstim,20260322_163314,2026-03-22 16:33:24.561885,NaN,0,reading,POSTREAD_FIX15_ON,215,2026-03-22 16:34:50.907016,86.299978,3.153926,,,,,,keyboard,after digit#15,"{""note"":""after digit#15""}",2,0.016667,60.000000,1
Sergio_G01_CNS-LLF5HT7Y0,s01,offmed_offstim,20260322_163314,2026-03-22 16:33:24.561885,NaN,0,reading,POSTREAD_FIX15_OFF,230,2026-03-22 16:34:54.058523,89.453904,0.049139,,,,,,keyboard,after digit#15,"{""note"":""after digit#15"",""pd_used"":0}",2,0.016667,60.000000,1
Sergio_G01_CNS-LLF5HT7Y0,s01,offmed_offstim,20260322_163314,2026-03-22 16:33:24.561885,NaN,0,reading,READING_END,24,2026-03-22 16:34:54.065237,89.503043,0.053669,,,,,,keyboard,,{},2,0.016667,60.000000,1
Sergio_G01_CNS-LLF5HT7Y0,s01,offmed_offstim,20260322_163314,2026-03-22 16:33:24.561885,NaN,0,reading,START_PAGE_ON,4,2026-03-22 16:34:54.162495,89.556712,0.053312,,,,,,keyboard,,"{""pd_used"":0}",2,0.016667,60.000000,1
Sergio_G01_CNS-LLF5HT7Y0,s01,offmed_offstim,20260322_163314,2026-03-22 16:33:24.561885,NaN,0,reading,START_PAGE_ON,4,2026-03-22 16:34:54.162495,89.556712,1.282893,,,,,,keyboard,,"{""pd_used"":0}",2,0.016667,60.000000,1
Sergio_G01_CNS-LLF5HT7Y0,s01,offmed_offstim,20260322_163314,2026-03-22 16:33:24.561885,NaN,0,reading,START_PAGE_ON,4,2026-03-22 16:34:54.162495,89.556712,1.655957,,,,,,keyboard,,"{""pd_used"":0}",2,0.016667,60.000000,1
Sergio_G01_CNS-LLF5HT7Y0,s01,offmed_offstim,20260322_163314,2026-03-22 16:33:24.561885,NaN,1,reading,TRIAL_CHANGE,22,2026-03-22 16:34:55.775057,91.212669,0.002061,,,,,,keyboard,trial transition,"{""note"":""trial transition""}",2,0.016667,60.000000,1
Sergio_G01_CNS-LLF5HT7Y0,s01,offmed_offstim,20260322_163314,2026-03-22 16:33:24.561885,NaN,1,reading,TRIAL_START,20,2026-03-22 16:34:55.777281,91.214730,0.058273,,,,,,keyboard,,{},2,0.016667,60.000000,1
Sergio_G01_CNS-LLF5HT7Y0,s01,offmed_offstim,20260322_163314,2026-03-22 16:33:24.561885,NaN,1,fix1,FIX1_ON,30,2026-03-22 16:34:55.877563,91.273003,3.347072,,,,,,keyboard,,"{""pd_used"":0}",2,0.016667,60.000000,1
Sergio_G01_CNS-LLF5HT7Y0,s01,offmed_offstim,20260322_163314,2026-03-22 16:33:24.561885,NaN,1,fix1,FIX1_OFF,31,2026-03-22 16:34:59.224232,94.620076,0.051300,,,,,,keyboard,,"{""pd_used"":0}",2,0.016667,60.000000,1
Sergio_G01_CNS-LLF5HT7Y0,s01,offmed_offstim,20260322_163314,2026-03-22 16:33:24.561885,NaN,1,digit,DIGIT1_ON,141,2026-03-22 16:34:59.275633,94.671375,0.551565,,6,,,,keyboard,digit#1 shown,"{""value"":6,""note"":""digit#1 shown"",""pd_used"":1}",2,0.016667,60.000000,1
Sergio_G01_CNS-LLF5HT7Y0,s01,offmed_offstim,20260322_163314,2026-03-22 16:33:24.561885,NaN,1,digit,DIGIT1_OFF,146,2026-03-22 16:34:59.826837,95.222941,0.000000,,6,,,,keyboard,digit#1 off,"{""value"":6,""note"":""digit#1 off"",""pd_used"":0}",2,0.016667,60.000000,1
Sergio_G01_CNS-LLF5HT7Y0,s01,offmed_offstim,20260322_163314,2026-03-22 16:33:24.561885,NaN,1,digit,POSTDIG_FIX1_ON,151,2026-03-22 16:34:59.827520,95.222941,1.675822,,,,,,keyboard,after digit#1,"{""note"":""after digit#1""}",2,0.016667,60.000000,1
Sergio_G01_CNS-LLF5HT7Y0,s01,offmed_offstim,20260322_163314,2026-03-22 16:33:24.561885,NaN,1,digit,POSTDIG_FIX1_OFF,156,2026-03-22 16:35:01.502880,96.898763,0.051392,,,,,,keyboard,after digit#1,"{""note"":""after digit#1"",""pd_used"":0}",2,0.016667,60.000000,1
Sergio_G01_CNS-LLF5HT7Y0,s01,offmed_offstim,20260322_163314,2026-03-22 16:33:24.561885,NaN,1,digit,DIGIT2_ON,142,2026-03-22 16:35:01.554990,96.950155,0.552727,,0,,,,keyboard,digit#2 shown,"{""value"":0,""note"":""digit#2 shown"",""pd_used"":1}",2,0.016667,60.000000,1
Sergio_G01_CNS-LLF5HT7Y0,s01,offmed_offstim,20260322_163314,2026-03-22 16:33:24.561885,NaN,1,digit,DIGIT2_OFF,147,2026-03-22 16:35:02.106542,97.502882,0.000000,,0,,,,keyboard,digit#2 off,"{""value"":0,""note"":""digit#2 off"",""pd_used"":0}",2,0.016667,60.000000,1
Sergio_G01_CNS-LLF5HT7Y0,s01,offmed_offstim,20260322_163314,2026-03-22 16:33:24.561885,NaN,1,digit,POSTDIG_FIX2_ON,152,2026-03-22 16:35:02.107412,97.502882,1.606430,,,,,,keyboard,after digit#2,"{""note"":""after digit#2""}",2,0.016667,60.000000,1
Sergio_G01_CNS-LLF5HT7Y0,s01,offmed_offstim,20260322_163314,2026-03-22 16:33:24.561885,NaN,1,digit,POSTDIG_FIX2_OFF,157,2026-03-22 16:35:03.714715,99.109312,0.053222,,,,,,keyboard,after digit#2,"{""note"":""after digit#2"",""pd_used"":0}",2,0.016667,60.000000,1
Sergio_G01_CNS-LLF5HT7Y0,s01,offmed_offstim,20260322_163314,2026-03-22 16:33:24.561885,NaN,1,digit,DIGIT3_ON,143,2026-03-22 16:35:03.766862,99.162534,0.552224,,1,,,,keyboard,digit#3 shown,"{""value"":1,""note"":""digit#3 shown"",""pd_used"":1}",2,0.016667,60.000000,1
Sergio_G01_CNS-LLF5HT7Y0,s01,offmed_offstim,20260322_163314,2026-03-22 16:33:24.561885,NaN,1,digit,DIGIT3_OFF,148,2026-03-22 16:35:04.318763,99.714758,0.000000,,1,,,,keyboard,digit#3 off,"{""value"":1,""note"":""digit#3 off"",""pd_used"":0}",2,0.016667,60.000000,1
Sergio_G01_CNS-LLF5HT7Y0,s01,offmed_offstim,20260322_163314,2026-03-22 16:33:24.561885,NaN,1,digit,POSTDIG_FIX3_ON,153,2026-03-22 16:35:04.319501,99.714758,1.663628,,,,,,keyboard,after digit#3,"{""note"":""after digit#3""}",2,0.016667,60.000000,1
Sergio_G01_CNS-LLF5HT7Y0,s01,offmed_offstim,20260322_163314,2026-03-22 16:33:24.561885,NaN,1,digit,POSTDIG_FIX3_OFF,158,2026-03-22 16:35:05.983259,101.378386,0.052207,,,,,,keyboard,after digit#3,"{""note"":""after digit#3"",""pd_used"":0}",2,0.016667,60.000000,1
Sergio_G01_CNS-LLF5HT7Y0,s01,offmed_offstim,20260322_163314,2026-03-22 16:33:24.561885,NaN,1,digit,DIGIT4_ON,144,2026-03-22 16:35:06.034715,101.430592,0.551508,,2,,,,keyboard,digit#4 shown,"{""value"":2,""note"":""digit#4 shown"",""pd_used"":1}",2,0.016667,60.000000,1
Sergio_G01_CNS-LLF5HT7Y0,s01,offmed_offstim,20260322_163314,2026-03-22 16:33:24.561885,NaN,1,digit,DIGIT4_OFF,149,2026-03-22 16:35:06.586561,101.982100,0.000000,,2,,,,keyboard,digit#4 off,"{""value"":2,""note"":""digit#4 off"",""pd_used"":0}",2,0.016667,60.000000,1
Sergio_G01_CNS-LLF5HT7Y0,s01,offmed_offstim,20260322_163314,2026-03-22 16:33:24.561885,NaN,1,digit,POSTDIG_FIX4_ON,154,2026-03-22 16:35:06.587649,101.982100,1.966687,,,,,,keyboard,after digit#4,"{""note"":""after digit#4""}",2,0.016667,60.000000,1
Sergio_G01_CNS-LLF5HT7Y0,s01,offmed_offstim,20260322_163314,2026-03-22 16:33:24.561885,NaN,1,digit,POSTDIG_FIX4_OFF,159,2026-03-22 16:35:08.553196,103.948787,0.051444,,,,,,keyboard,after digit#4,"{""note"":""after digit#4"",""pd_used"":0}",2,0.016667,60.000000,1
Sergio_G01_CNS-LLF5HT7Y0,s01,offmed_offstim,20260322_163314,2026-03-22 16:33:24.561885,NaN,1,digit,DIGIT5_ON,145,2026-03-22 16:35:08.604973,104.000231,0.552433,,9,,,,keyboard,digit#5 shown,"{""value"":9,""note"":""digit#5 shown"",""pd_used"":1}",2,0.016667,60.000000,1
Sergio_G01_CNS-LLF5HT7Y0,s01,offmed_offstim,20260322_163314,2026-03-22 16:33:24.561885,NaN,1,digit,DIGIT5_OFF,150,2026-03-22 16:35:09.156409,104.552664,0.000000,,9,,,,keyboard,digit#5 off,"{""value"":9,""note"":""digit#5 off"",""pd_used"":0}",2,0.016667,60.000000,1
Sergio_G01_CNS-LLF5HT7Y0,s01,offmed_offstim,20260322_163314,2026-03-22 16:33:24.561885,NaN,1,digit,POSTDIG_FIX5_ON,155,2026-03-22 16:35:09.157228,104.552664,3.360034,,,,,,keyboard,after digit#5,"{""note"":""after digit#5""}",2,0.016667,60.000000,1
Sergio_G01_CNS-LLF5HT7Y0,s01,offmed_offstim,20260322_163314,2026-03-22 16:33:24.561885,NaN,1,digit,POSTDIG_FIX5_OFF,160,2026-03-22 16:35:12.516630,107.912697,0.054542,,,,,,keyboard,after digit#5,"{""note"":""after digit#5"",""pd_used"":0}",2,0.016667,60.000000,1
Sergio_G01_CNS-LLF5HT7Y0,s01,offmed_offstim,20260322_163314,2026-03-22 16:33:24.561885,NaN,1,distractor,DISTRACTOR_ON,50,2026-03-22 16:35:12.571526,107.967239,1.488099,,0+8=6,,,,keyboard,,"{""value"":""0+8=6"",""isCorrectTruth"":false,""trueSum"":8,""pd_used"":1}",2,0.016667,60.000000,1
Sergio_G01_CNS-LLF5HT7Y0,s01,offmed_offstim,20260322_163314,2026-03-22 16:33:24.561885,NaN,1,distractor,DISTRACTOR_ANS,51,2026-03-22 16:35:14.652053,109.455338,0.000000,1.488099,0+8=6,F,1,,keyboard,key= (False),"{""value"":""0+8=6"",""entered"":""F"",""rt"":1.4880993000001581,""correct"":1,""note"":""key= (False)"",""truth"":false,""trueSum"":8,""shownSum"":6,""a"":0,""b"":8}",2,0.016667,60.000000,1
Sergio_G01_CNS-LLF5HT7Y0,s01,offmed_offstim,20260322_163314,2026-03-22 16:33:24.561885,NaN,1,distractor,ANS_CORRECT,100,2026-03-22 16:35:14.697796,109.455338,0.689083,,,,,,keyboard,,{},2,0.016667,60.000000,1
Sergio_G01_CNS-LLF5HT7Y0,s01,offmed_offstim,20260322_163314,2026-03-22 16:33:24.561885,NaN,1,distractor,DISTRACTOR_OFF,52,2026-03-22 16:35:14.749825,110.144421,0.000000,,,,,,keyboard,,"{""pd_used"":0}",2,0.016667,60.000000,1
Sergio_G01_CNS-LLF5HT7Y0,s01,offmed_offstim,20260322_163314,2026-03-22 16:33:24.561885,NaN,1,distractor,FIX2_ON,60,2026-03-22 16:35:14.751869,110.144421,3.362207,,,,,,keyboard,immediate after response,"{""note"":""immediate after response""}",2,0.016667,60.000000,1
Sergio_G01_CNS-LLF5HT7Y0,s01,offmed_offstim,20260322_163314,2026-03-22 16:33:24.561885,NaN,1,fix2,FIX2_OFF,61,2026-03-22 16:35:18.111026,113.506628,0.053971,,,,,,keyboard,,"{""pd_used"":0}",2,0.016667,60.000000,1
Sergio_G01_CNS-LLF5HT7Y0,s01,offmed_offstim,20260322_163314,2026-03-22 16:33:24.561885,NaN,1,probe,DIGIT_RECALL_LINE_1,161,2026-03-22 16:35:18.164314,113.560599,1.250942,,1,,,,keyboard,first recall question,"{""value"":1,""note"":""first recall question"",""pd_used"":1}",2,0.016667,60.000000,1
Sergio_G01_CNS-LLF5HT7Y0,s01,offmed_offstim,20260322_163314,2026-03-22 16:33:24.561885,NaN,1,probe,PROBE_DIGIT_OK_1,71,2026-03-22 16:35:19.958616,114.811541,0.636886,1.260596,slot#1,NaN,,,keyboard,probe_digit#1,"{""value"":""slot#1"",""entered"":null,""rt"":1.2605960000000778,""note"":""probe_digit#1""}",2,0.016667,60.000000,1
Sergio_G01_CNS-LLF5HT7Y0,s01,offmed_offstim,20260322_163314,2026-03-22 16:33:24.561885,NaN,1,probe,DIGIT1_OFF,146,2026-03-22 16:35:20.053362,115.448426,0.000000,,9,,,,keyboard,digit#1 off,"{""value"":9,""note"":""digit#1 off"",""pd_used"":0}",2,0.016667,60.000000,1
Sergio_G01_CNS-LLF5HT7Y0,s01,offmed_offstim,20260322_163314,2026-03-22 16:33:24.561885,NaN,1,probe,POSTDIG_FIX1_ON,151,2026-03-22 16:35:20.054201,115.448426,1.730830,,,,,,keyboard,after digit#1,"{""note"":""after digit#1""}",2,0.016667,60.000000,1
Sergio_G01_CNS-LLF5HT7Y0,s01,offmed_offstim,20260322_163314,2026-03-22 16:33:24.561885,NaN,1,probe,POSTDIG_FIX1_OFF,156,2026-03-22 16:35:21.783019,117.179257,0.058104,,,,,,keyboard,after digit#1,"{""note"":""after digit#1"",""pd_used"":0}",2,0.016667,60.000000,1
Sergio_G01_CNS-LLF5HT7Y0,s01,offmed_offstim,20260322_163314,2026-03-22 16:33:24.561885,NaN,1,probe,DIGIT_RECALL_LINE_2,162,2026-03-22 16:35:21.840920,117.237360,0.501746,,2,,,,keyboard,next recall question,"{""value"":2,""note"":""next recall question"",""pd_used"":1}",2,0.016667,60.000000,1
Sergio_G01_CNS-LLF5HT7Y0,s01,offmed_offstim,20260322_163314,2026-03-22 16:33:24.561885,NaN,1,probe,PROBE_DIGIT_OK_2,71,2026-03-22 16:35:22.863843,117.739106,0.613377,4.188161,slot#2,NaN,,,keyboard,probe_digit#2,"{""value"":""slot#2"",""entered"":null,""rt"":4.188161300000047,""note"":""probe_digit#2""}",2,0.016667,60.000000,1
Sergio_G01_CNS-LLF5HT7Y0,s01,offmed_offstim,20260322_163314,2026-03-22 16:33:24.561885,NaN,1,probe,DIGIT2_OFF,147,2026-03-22 16:35:22.958664,118.352483,0.000000,,9,,,,keyboard,digit#2 off,"{""value"":9,""note"":""digit#2 off"",""pd_used"":0}",2,0.016667,60.000000,1
Sergio_G01_CNS-LLF5HT7Y0,s01,offmed_offstim,20260322_163314,2026-03-22 16:33:24.561885,NaN,1,probe,POSTDIG_FIX2_ON,152,2026-03-22 16:35:22.960186,118.352483,1.807978,,,,,,keyboard,after digit#2,"{""note"":""after digit#2""}",2,0.016667,60.000000,1
Sergio_G01_CNS-LLF5HT7Y0,s01,offmed_offstim,20260322_163314,2026-03-22 16:33:24.561885,NaN,1,probe,POSTDIG_FIX2_OFF,157,2026-03-22 16:35:24.764001,120.160462,0.057468,,,,,,keyboard,after digit#2,"{""note"":""after digit#2"",""pd_used"":0}",2,0.016667,60.000000,1
Sergio_G01_CNS-LLF5HT7Y0,s01,offmed_offstim,20260322_163314,2026-03-22 16:33:24.561885,NaN,1,probe,DIGIT_RECALL_LINE_3,163,2026-03-22 16:35:24.820806,120.217930,0.466537,,3,,,,keyboard,next recall question,"{""value"":3,""note"":""next recall question"",""pd_used"":1}",2,0.016667,60.000000,1
Sergio_G01_CNS-LLF5HT7Y0,s01,offmed_offstim,20260322_163314,2026-03-22 16:33:24.561885,NaN,1,probe,PROBE_DIGIT_OK_3,71,2026-03-22 16:35:25.742266,120.684466,0.544753,7.133522,slot#3,NaN,,,keyboard,probe_digit#3,"{""value"":""slot#3"",""entered"":null,""rt"":7.1335218999997778,""note"":""probe_digit#3""}",2,0.016667,60.000000,1
Sergio_G01_CNS-LLF5HT7Y0,s01,offmed_offstim,20260322_163314,2026-03-22 16:33:24.561885,NaN,1,probe,DIGIT3_OFF,148,2026-03-22 16:35:25.835693,121.229219,0.000000,,9,,,,keyboard,digit#3 off,"{""value"":9,""note"":""digit#3 off"",""pd_used"":0}",2,0.016667,60.000000,1
Sergio_G01_CNS-LLF5HT7Y0,s01,offmed_offstim,20260322_163314,2026-03-22 16:33:24.561885,NaN,1,probe,POSTDIG_FIX3_ON,153,2026-03-22 16:35:25.836914,121.229219,1.609366,,,,,,keyboard,after digit#3,"{""note"":""after digit#3""}",2,0.016667,60.000000,1
Sergio_G01_CNS-LLF5HT7Y0,s01,offmed_offstim,20260322_163314,2026-03-22 16:33:24.561885,NaN,1,probe,POSTDIG_FIX3_OFF,158,2026-03-22 16:35:27.442707,122.838586,0.060584,,,,,,keyboard,after digit#3,"{""note"":""after digit#3"",""pd_used"":0}",2,0.016667,60.000000,1
Sergio_G01_CNS-LLF5HT7Y0,s01,offmed_offstim,20260322_163314,2026-03-22 16:33:24.561885,NaN,1,probe,DIGIT_RECALL_LINE_4,164,2026-03-22 16:35:27.503255,122.899170,0.414485,,4,,,,keyboard,next recall question,"{""value"":4,""note"":""next recall question"",""pd_used"":1}",2,0.016667,60.000000,1
Sergio_G01_CNS-LLF5HT7Y0,s01,offmed_offstim,20260322_163314,2026-03-22 16:33:24.561885,NaN,1,probe,PROBE_DIGIT_OK_4,71,2026-03-22 16:35:28.508792,123.313654,0.683666,9.762710,slot#4,NaN,,,keyboard,probe_digit#4,"{""value"":""slot#4"",""entered"":null,""rt"":9.7627096000001075,""note"":""probe_digit#4""}",2,0.016667,60.000000,1
Sergio_G01_CNS-LLF5HT7Y0,s01,offmed_offstim,20260322_163314,2026-03-22 16:33:24.561885,NaN,1,probe,DIGIT4_OFF,149,2026-03-22 16:35:28.604350,123.997320,0.000000,,9,,,,keyboard,digit#4 off,"{""value"":9,""note"":""digit#4 off"",""pd_used"":0}",2,0.016667,60.000000,1
Sergio_G01_CNS-LLF5HT7Y0,s01,offmed_offstim,20260322_163314,2026-03-22 16:33:24.561885,NaN,1,probe,POSTDIG_FIX4_ON,154,2026-03-22 16:35:28.605947,123.997320,1.907949,,,,,,keyboard,after digit#4,"{""note"":""after digit#4""}",2,0.016667,60.000000,1
Sergio_G01_CNS-LLF5HT7Y0,s01,offmed_offstim,20260322_163314,2026-03-22 16:33:24.561885,NaN,1,probe,POSTDIG_FIX4_OFF,159,2026-03-22 16:35:30.509552,125.905270,0.060548,,,,,,keyboard,after digit#4,"{""note"":""after digit#4"",""pd_used"":0}",2,0.016667,60.000000,1
Sergio_G01_CNS-LLF5HT7Y0,s01,offmed_offstim,20260322_163314,2026-03-22 16:33:24.561885,NaN,1,probe,DIGIT_RECALL_LINE_5,165,2026-03-22 16:35:30.568667,125.965817,0.500980,,5,,,,keyboard,next recall question,"{""value"":5,""note"":""next recall question"",""pd_used"":1}",2,0.016667,60.000000,1
Sergio_G01_CNS-LLF5HT7Y0,s01,offmed_offstim,20260322_163314,2026-03-22 16:33:24.561885,NaN,1,probe,PROBE_DIGIT_OK_5,71,2026-03-22 16:35:31.518674,126.466798,0.539448,12.915853,slot#5,NaN,,,keyboard,probe_digit#5,"{""value"":""slot#5"",""entered"":null,""rt"":12.915853399999833,""note"":""probe_digit#5""}",2,0.016667,60.000000,1
Sergio_G01_CNS-LLF5HT7Y0,s01,offmed_offstim,20260322_163314,2026-03-22 16:33:24.561885,NaN,1,probe,DIGIT5_OFF,150,2026-03-22 16:35:31.612527,127.006246,0.000000,,9,,,,keyboard,digit#5 off,"{""value"":9,""note"":""digit#5 off"",""pd_used"":0}",2,0.016667,60.000000,1
Sergio_G01_CNS-LLF5HT7Y0,s01,offmed_offstim,20260322_163314,2026-03-22 16:33:24.561885,NaN,1,probe,POSTDIG_FIX5_ON,155,2026-03-22 16:35:31.613273,127.006246,3.130454,,,,,,keyboard,after digit#5,"{""note"":""after digit#5""}",2,0.016667,60.000000,1
Sergio_G01_CNS-LLF5HT7Y0,s01,offmed_offstim,20260322_163314,2026-03-22 16:33:24.561885,NaN,1,probe,POSTDIG_FIX5_OFF,160,2026-03-22 16:35:34.741480,130.136701,0.050403,,,,,,keyboard,after digit#5,"{""note"":""after digit#5"",""pd_used"":0}",2,0.016667,60.000000,1
Sergio_G01_CNS-LLF5HT7Y0,s01,offmed_offstim,20260322_163314,2026-03-22 16:33:24.561885,NaN,1,probe,PROBE_DONE,73,2026-03-22 16:35:34.749250,130.187104,0.001347,,,,,,keyboard,probe complete,"{""value"":"""",""note"":""probe complete""}",2,0.016667,60.000000,1
Sergio_G01_CNS-LLF5HT7Y0,s01,offmed_offstim,20260322_163314,2026-03-22 16:33:24.561885,NaN,1,probe,TRIAL_END,21,2026-03-22 16:35:34.750457,130.188451,0.042601,,,,,,keyboard,,{},2,0.016667,60.000000,1
Sergio_G01_CNS-LLF5HT7Y0,s01,offmed_offstim,20260322_163314,2026-03-22 16:33:24.561885,NaN,1,probe,BLOCK_END,11,2026-03-22 16:35:34.792855,130.231052,0.276431,,,,,,keyboard,,{},2,0.016667,60.000000,1
Sergio_G01_CNS-LLF5HT7Y0,s01,offmed_offstim,20260322_163314,2026-03-22 16:33:24.561885,NaN,1,probe,SESSION_END,3,2026-03-22 16:35:35.069535,130.507483,NaN,,,,,,keyboard,,{},2,0.016667,60.000000,1
