file_version,subject,condition,session,task_start_time,block,trial,phase,event_name,event_code,wall_clock,t_rel_sec,duration_to_next,rt,value_shown,entered_value,correct,key_name,device,note,json,screen_index,ifi,refresh_hz,pd_used
Sergio_G01_CNS-LLF5HT7Y0,s01,offmed_offstim,20260323_155558,2026-03-23 15:56:10.147673,NaN,NaN,,MIC_NOISEFLOOR,6,2026-03-23 15:56:12.601806,2.453318,4.176570,,,,,,keyboard,,{},2,NaN,NaN,1
Sergio_G01_CNS-LLF5HT7Y0,s01,offmed_offstim,20260323_155558,2026-03-23 15:56:10.147673,NaN,NaN,,MIC_REC_SPEECH,7,2026-03-23 15:56:16.778203,6.629888,6.654458,,,,,,keyboard,,{},2,NaN,NaN,1
Sergio_G01_CNS-LLF5HT7Y0,s01,offmed_offstim,20260323_155558,2026-03-23 15:56:10.147673,NaN,NaN,,SESSION_START,1,2026-03-23 15:56:34.656472,24.502702,0.007804,,,,,,keyboard,,{},2,0.008333,120.000000,1
Sergio_G01_CNS-LLF5HT7Y0,s01,offmed_offstim,20260323_155558,2026-03-23 15:56:10.147673,NaN,NaN,,BLOCK_START,10,2026-03-23 15:56:34.658870,24.510506,0.065157,,,,,,keyboard,,{},2,0.008333,120.000000,1
Sergio_G01_CNS-LLF5HT7Y0,s01,offmed_offstim,20260323_155558,2026-03-23 15:56:10.147673,NaN,0,reading,START_PAGE_ON,4,2026-03-23 15:56:34.768931,24.575663,0.060201,,,,,,keyboard,,"{""pd_used"":0}",2,0.008333,120.000000,1
Sergio_G01_CNS-LLF5HT7Y0,s01,offmed_offstim,20260323_155558,2026-03-23 15:56:10.147673,NaN,0,reading,START_PAGE_ON,4,2026-03-23 15:56:34.768931,24.575663,7.001084,,,,,,keyboard,,"{""pd_used"":0}",2,0.008333,120.000000,1
Sergio_G01_CNS-LLF5HT7Y0,s01,offmed_offstim,20260323_155558,2026-03-23 15:56:10.147673,NaN,0,reading,START_PAGE_ON,4,2026-03-23 15:56:34.768931,24.575663,7.377487,,,,,,keyboard,,"{""pd_used"":0}",2,0.008333,120.000000,1
Sergio_G01_CNS-LLF5HT7Y0,s01,offmed_offstim,20260323_155558,2026-03-23 15:56:10.147673,NaN,0,reading,READING_START,23,2026-03-23 15:56:42.101792,31.953149,0.072487,,,,,,keyboard,,{},2,0.008333,120.000000,1
Sergio_G01_CNS-LLF5HT7Y0,s01,offmed_offstim,20260323_155558,2026-03-23 15:56:10.147673,NaN,0,reading,DIGIT_READ1_ON,101,2026-03-23 15:56:42.218081,32.025636,0.738492,,5,,,,keyboard,digit#1 shown,"{""value"":5,""note"":""digit#1 shown"",""pd_used"":1}",2,0.008333,120.000000,1
Sergio_G01_CNS-LLF5HT7Y0,s01,offmed_offstim,20260323_155558,2026-03-23 15:56:10.147673,NaN,0,reading,PROBE_COUNT_OK_1,71,2026-03-23 15:56:43.280711,32.764128,0.424492,8.204819,slot#1,NaN,,,keyboard,probe_digit#1,"{""value"":""slot#1"",""entered"":null,""rt"":8.204818799997156,""note"":""probe_digit#1""}",2,0.008333,120.000000,1
Sergio_G01_CNS-LLF5HT7Y0,s01,offmed_offstim,20260323_155558,2026-03-23 15:56:10.147673,NaN,0,reading,DIGIT_READ1_OFF,116,2026-03-23 15:56:43.381619,33.188620,0.000000,,5,,,,keyboard,digit#1 off,"{""value"":5,""note"":""digit#1 off"",""pd_used"":0}",2,0.008333,120.000000,1
Sergio_G01_CNS-LLF5HT7Y0,s01,offmed_offstim,20260323_155558,2026-03-23 15:56:10.147673,NaN,0,reading,POSTREAD_FIX1_ON,201,2026-03-23 15:56:43.384321,33.188620,1.661263,,,,,,keyboard,after digit#1,"{""note"":""after digit#1""}",2,0.008333,120.000000,1
Sergio_G01_CNS-LLF5HT7Y0,s01,offmed_offstim,20260323_155558,2026-03-23 15:56:10.147673,NaN,0,reading,POSTREAD_FIX1_OFF,216,2026-03-23 15:56:45.043515,34.849883,0.069270,,,,,,keyboard,after digit#1,"{""note"":""after digit#1"",""pd_used"":0}",2,0.008333,120.000000,1
Sergio_G01_CNS-LLF5HT7Y0,s01,offmed_offstim,20260323_155558,2026-03-23 15:56:10.147673,NaN,0,reading,DIGIT_READ2_ON,102,2026-03-23 15:56:45.111324,34.919153,0.845520,,0,,,,keyboard,digit#2 shown,"{""value"":0,""note"":""digit#2 shown"",""pd_used"":1}",2,0.008333,120.000000,1
Sergio_G01_CNS-LLF5HT7Y0,s01,offmed_offstim,20260323_155558,2026-03-23 15:56:10.147673,NaN,0,reading,PROBE_COUNT_OK_2,71,2026-03-23 15:56:46.264280,35.764673,0.406615,11.205364,slot#2,NaN,,,keyboard,probe_digit#2,"{""value"":""slot#2"",""entered"":null,""rt"":11.205363599998236,""note"":""probe_digit#2""}",2,0.008333,120.000000,1
Sergio_G01_CNS-LLF5HT7Y0,s01,offmed_offstim,20260323_155558,2026-03-23 15:56:10.147673,NaN,0,reading,DIGIT_READ2_OFF,117,2026-03-23 15:56:46.364414,36.171288,0.000000,,0,,,,keyboard,digit#2 off,"{""value"":0,""note"":""digit#2 off"",""pd_used"":0}",2,0.008333,120.000000,1
Sergio_G01_CNS-LLF5HT7Y0,s01,offmed_offstim,20260323_155558,2026-03-23 15:56:10.147673,NaN,0,reading,POSTREAD_FIX2_ON,202,2026-03-23 15:56:46.367096,36.171288,1.992841,,,,,,keyboard,after digit#2,"{""note"":""after digit#2""}",2,0.008333,120.000000,1
Sergio_G01_CNS-LLF5HT7Y0,s01,offmed_offstim,20260323_155558,2026-03-23 15:56:10.147673,NaN,0,reading,POSTREAD_FIX2_OFF,217,2026-03-23 15:56:48.356939,38.164129,0.066907,,,,,,keyboard,after digit#2,"{""note"":""after digit#2"",""pd_used"":0}",2,0.008333,120.000000,1
Sergio_G01_CNS-LLF5HT7Y0,s01,offmed_offstim,20260323_155558,2026-03-23 15:56:10.147673,NaN,0,reading,DIGIT_READ3_ON,103,2026-03-23 15:56:48.423424,38.231035,0.169271,,0,,,,keyboard,digit#3 shown,"{""value"":0,""note"":""digit#3 shown"",""pd_used"":1}",2,0.008333,120.000000,1
Sergio_G01_CNS-LLF5HT7Y0,s01,offmed_offstim,20260323_155558,2026-03-23 15:56:10.147673,NaN,0,reading,PROBE_COUNT_OK_3,71,2026-03-23 15:56:48.894263,38.400306,0.406185,13.840997,slot#3,NaN,,,keyboard,probe_digit#3,"{""value"":""slot#3"",""entered"":null,""rt"":13.840996899998572,""note"":""probe_digit#3""}",2,0.008333,120.000000,1
Sergio_G01_CNS-LLF5HT7Y0,s01,offmed_offstim,20260323_155558,2026-03-23 15:56:10.147673,NaN,0,reading,DIGIT_READ3_OFF,118,2026-03-23 15:56:48.998508,38.806491,0.000000,,0,,,,keyboard,digit#3 off,"{""value"":0,""note"":""digit#3 off"",""pd_used"":0}",2,0.008333,120.000000,1
Sergio_G01_CNS-LLF5HT7Y0,s01,offmed_offstim,20260323_155558,2026-03-23 15:56:10.147673,NaN,0,reading,POSTREAD_FIX3_ON,203,2026-03-23 15:56:49.002431,38.806491,1.997479,,,,,,keyboard,after digit#3,"{""note"":""after digit#3""}",2,0.008333,120.000000,1
Sergio_G01_CNS-LLF5HT7Y0,s01,offmed_offstim,20260323_155558,2026-03-23 15:56:10.147673,NaN,0,reading,POSTREAD_FIX3_OFF,218,2026-03-23 15:56:50.996035,40.803970,0.062805,,,,,,keyboard,after digit#3,"{""note"":""after digit#3"",""pd_used"":0}",2,0.008333,120.000000,1
Sergio_G01_CNS-LLF5HT7Y0,s01,offmed_offstim,20260323_155558,2026-03-23 15:56:10.147673,NaN,0,reading,DIGIT_READ4_ON,104,2026-03-23 15:56:51.059733,40.866775,1.493235,,5,,,,keyboard,digit#4 shown,"{""value"":5,""note"":""digit#4 shown"",""pd_used"":1}",2,0.008333,120.000000,1
Sergio_G01_CNS-LLF5HT7Y0,s01,offmed_offstim,20260323_155558,2026-03-23 15:56:10.147673,NaN,0,reading,PROBE_COUNT_OK_4,71,2026-03-23 15:56:53.085030,42.360010,0.629731,17.800701,slot#4,NaN,,,keyboard,probe_digit#4,"{""value"":""slot#4"",""entered"":null,""rt"":17.800700899999356,""note"":""probe_digit#4""}",2,0.008333,120.000000,1
Sergio_G01_CNS-LLF5HT7Y0,s01,offmed_offstim,20260323_155558,2026-03-23 15:56:10.147673,NaN,0,reading,DIGIT_READ4_OFF,119,2026-03-23 15:56:53.184517,42.989741,0.000000,,5,,,,keyboard,digit#4 off,"{""value"":5,""note"":""digit#4 off"",""pd_used"":0}",2,0.008333,120.000000,1
Sergio_G01_CNS-LLF5HT7Y0,s01,offmed_offstim,20260323_155558,2026-03-23 15:56:10.147673,NaN,0,reading,POSTREAD_FIX4_ON,204,2026-03-23 15:56:53.186946,42.989741,2.039441,,,,,,keyboard,after digit#4,"{""note"":""after digit#4""}",2,0.008333,120.000000,1
Sergio_G01_CNS-LLF5HT7Y0,s01,offmed_offstim,20260323_155558,2026-03-23 15:56:10.147673,NaN,0,reading,POSTREAD_FIX4_OFF,219,2026-03-23 15:56:55.222773,45.029181,0.063651,,,,,,keyboard,after digit#4,"{""note"":""after digit#4"",""pd_used"":0}",2,0.008333,120.000000,1
Sergio_G01_CNS-LLF5HT7Y0,s01,offmed_offstim,20260323_155558,2026-03-23 15:56:10.147673,NaN,0,reading,DIGIT_READ5_ON,105,2026-03-23 15:56:55.284667,45.092832,0.560807,,6,,,,keyboard,digit#5 shown,"{""value"":6,""note"":""digit#5 shown"",""pd_used"":1}",2,0.008333,120.000000,1
Sergio_G01_CNS-LLF5HT7Y0,s01,offmed_offstim,20260323_155558,2026-03-23 15:56:10.147673,NaN,0,reading,PROBE_COUNT_OK_5,71,2026-03-23 15:56:56.156483,45.653639,0.409671,21.094330,slot#5,NaN,,,keyboard,probe_digit#5,"{""value"":""slot#5"",""entered"":null,""rt"":21.0943299999999,""note"":""probe_digit#5""}",2,0.008333,120.000000,1
Sergio_G01_CNS-LLF5HT7Y0,s01,offmed_offstim,20260323_155558,2026-03-23 15:56:10.147673,NaN,0,reading,DIGIT_READ5_OFF,120,2026-03-23 15:56:56.255434,46.063310,0.000000,,6,,,,keyboard,digit#5 off,"{""value"":6,""note"":""digit#5 off"",""pd_used"":0}",2,0.008333,120.000000,1
Sergio_G01_CNS-LLF5HT7Y0,s01,offmed_offstim,20260323_155558,2026-03-23 15:56:10.147673,NaN,0,reading,POSTREAD_FIX5_ON,205,2026-03-23 15:56:56.257802,46.063310,1.578331,,,,,,keyboard,after digit#5,"{""note"":""after digit#5""}",2,0.008333,120.000000,1
Sergio_G01_CNS-LLF5HT7Y0,s01,offmed_offstim,20260323_155558,2026-03-23 15:56:10.147673,NaN,0,reading,POSTREAD_FIX5_OFF,220,2026-03-23 15:56:57.834792,47.641642,0.064442,,,,,,keyboard,after digit#5,"{""note"":""after digit#5"",""pd_used"":0}",2,0.008333,120.000000,1
Sergio_G01_CNS-LLF5HT7Y0,s01,offmed_offstim,20260323_155558,2026-03-23 15:56:10.147673,NaN,0,reading,DIGIT_READ6_ON,106,2026-03-23 15:56:57.898688,47.706083,0.194664,,3,,,,keyboard,digit#6 shown,"{""value"":3,""note"":""digit#6 shown"",""pd_used"":1}",2,0.008333,120.000000,1
Sergio_G01_CNS-LLF5HT7Y0,s01,offmed_offstim,20260323_155558,2026-03-23 15:56:10.147673,NaN,0,reading,PROBE_COUNT_OK_6,71,2026-03-23 15:56:58.365505,47.900748,0.371231,23.341438,slot#6,NaN,,,keyboard,probe_digit#6,"{""value"":""slot#6"",""entered"":null,""rt"":23.34143849999964,""note"":""probe_digit#6""}",2,0.008333,120.000000,1
Sergio_G01_CNS-LLF5HT7Y0,s01,offmed_offstim,20260323_155558,2026-03-23 15:56:10.147673,NaN,0,reading,DIGIT_READ6_OFF,121,2026-03-23 15:56:58.464590,48.271979,0.000000,,3,,,,keyboard,digit#6 off,"{""value"":3,""note"":""digit#6 off"",""pd_used"":0}",2,0.008333,120.000000,1
Sergio_G01_CNS-LLF5HT7Y0,s01,offmed_offstim,20260323_155558,2026-03-23 15:56:10.147673,NaN,0,reading,POSTREAD_FIX6_ON,206,2026-03-23 15:56:58.466792,48.271979,1.750702,,,,,,keyboard,after digit#6,"{""note"":""after digit#6""}",2,0.008333,120.000000,1
Sergio_G01_CNS-LLF5HT7Y0,s01,offmed_offstim,20260323_155558,2026-03-23 15:56:10.147673,NaN,0,reading,POSTREAD_FIX6_OFF,221,2026-03-23 15:57:00.215498,50.022681,0.063187,,,,,,keyboard,after digit#6,"{""note"":""after digit#6"",""pd_used"":0}",2,0.008333,120.000000,1
Sergio_G01_CNS-LLF5HT7Y0,s01,offmed_offstim,20260323_155558,2026-03-23 15:56:10.147673,NaN,0,reading,DIGIT_READ7_ON,107,2026-03-23 15:57:00.278594,50.085868,0.693230,,1,,,,keyboard,digit#7 shown,"{""value"":1,""note"":""digit#7 shown"",""pd_used"":1}",2,0.008333,120.000000,1
Sergio_G01_CNS-LLF5HT7Y0,s01,offmed_offstim,20260323_155558,2026-03-23 15:56:10.147673,NaN,0,reading,PROBE_COUNT_OK_7,71,2026-03-23 15:57:01.864546,50.779098,0.990069,26.219788,slot#7,NaN,,,keyboard,probe_digit#7,"{""value"":""slot#7"",""entered"":null,""rt"":26.219788499998685,""note"":""probe_digit#7""}",2,0.008333,120.000000,1
Sergio_G01_CNS-LLF5HT7Y0,s01,offmed_offstim,20260323_155558,2026-03-23 15:56:10.147673,NaN,0,reading,DIGIT_READ7_OFF,122,2026-03-23 15:57:01.963524,51.769167,0.000000,,1,,,,keyboard,digit#7 off,"{""value"":1,""note"":""digit#7 off"",""pd_used"":0}",2,0.008333,120.000000,1
Sergio_G01_CNS-LLF5HT7Y0,s01,offmed_offstim,20260323_155558,2026-03-23 15:56:10.147673,NaN,0,reading,POSTREAD_FIX7_ON,207,2026-03-23 15:57:01.965737,51.769167,1.963025,,,,,,keyboard,after digit#7,"{""note"":""after digit#7""}",2,0.008333,120.000000,1
Sergio_G01_CNS-LLF5HT7Y0,s01,offmed_offstim,20260323_155558,2026-03-23 15:56:10.147673,NaN,0,reading,POSTREAD_FIX7_OFF,222,2026-03-23 15:57:03.924118,53.732192,0.061843,,,,,,keyboard,after digit#7,"{""note"":""after digit#7"",""pd_used"":0}",2,0.008333,120.000000,1
Sergio_G01_CNS-LLF5HT7Y0,s01,offmed_offstim,20260323_155558,2026-03-23 15:56:10.147673,NaN,0,reading,DIGIT_READ8_ON,108,2026-03-23 15:57:03.986670,53.794035,0.714809,,6,,,,keyboard,digit#8 shown,"{""value"":6,""note"":""digit#8 shown"",""pd_used"":1}",2,0.008333,120.000000,1
Sergio_G01_CNS-LLF5HT7Y0,s01,offmed_offstim,20260323_155558,2026-03-23 15:56:10.147673,NaN,0,reading,PROBE_COUNT_OK_8,71,2026-03-23 15:57:04.995295,54.508844,0.390525,29.949535,slot#8,NaN,,,keyboard,probe_digit#8,"{""value"":""slot#8"",""entered"":null,""rt"":29.949534999999742,""note"":""probe_digit#8""}",2,0.008333,120.000000,1
Sergio_G01_CNS-LLF5HT7Y0,s01,offmed_offstim,20260323_155558,2026-03-23 15:56:10.147673,NaN,0,reading,DIGIT_READ8_OFF,123,2026-03-23 15:57:05.094221,54.899369,0.000000,,6,,,,keyboard,digit#8 off,"{""value"":6,""note"":""digit#8 off"",""pd_used"":0}",2,0.008333,120.000000,1
Sergio_G01_CNS-LLF5HT7Y0,s01,offmed_offstim,20260323_155558,2026-03-23 15:56:10.147673,NaN,0,reading,POSTREAD_FIX8_ON,208,2026-03-23 15:57:05.096564,54.899369,1.898208,,,,,,keyboard,after digit#8,"{""note"":""after digit#8""}",2,0.008333,120.000000,1
Sergio_G01_CNS-LLF5HT7Y0,s01,offmed_offstim,20260323_155558,2026-03-23 15:56:10.147673,NaN,0,reading,POSTREAD_FIX8_OFF,223,2026-03-23 15:57:06.990869,56.797578,0.063087,,,,,,keyboard,after digit#8,"{""note"":""after digit#8"",""pd_used"":0}",2,0.008333,120.000000,1
Sergio_G01_CNS-LLF5HT7Y0,s01,offmed_offstim,20260323_155558,2026-03-23 15:56:10.147673,NaN,0,reading,DIGIT_READ9_ON,109,2026-03-23 15:57:07.053420,56.860665,0.199036,,5,,,,keyboard,digit#9 shown,"{""value"":5,""note"":""digit#9 shown"",""pd_used"":1}",2,0.008333,120.000000,1
Sergio_G01_CNS-LLF5HT7Y0,s01,offmed_offstim,20260323_155558,2026-03-23 15:56:10.147673,NaN,0,reading,PROBE_COUNT_OK_9,71,2026-03-23 15:57:07.534038,57.059701,0.381267,32.500391,slot#9,NaN,,,keyboard,probe_digit#9,"{""value"":""slot#9"",""entered"":null,""rt"":32.500391499997932,""note"":""probe_digit#9""}",2,0.008333,120.000000,1
Sergio_G01_CNS-LLF5HT7Y0,s01,offmed_offstim,20260323_155558,2026-03-23 15:56:10.147673,NaN,0,reading,DIGIT_READ9_OFF,124,2026-03-23 15:57:07.633740,57.440967,0.000000,,5,,,,keyboard,digit#9 off,"{""value"":5,""note"":""digit#9 off"",""pd_used"":0}",2,0.008333,120.000000,1
Sergio_G01_CNS-LLF5HT7Y0,s01,offmed_offstim,20260323_155558,2026-03-23 15:56:10.147673,NaN,0,reading,POSTREAD_FIX9_ON,209,2026-03-23 15:57:07.636229,57.440967,1.782498,,,,,,keyboard,after digit#9,"{""note"":""after digit#9""}",2,0.008333,120.000000,1
Sergio_G01_CNS-LLF5HT7Y0,s01,offmed_offstim,20260323_155558,2026-03-23 15:56:10.147673,NaN,0,reading,POSTREAD_FIX9_OFF,224,2026-03-23 15:57:09.416059,59.223465,0.062528,,,,,,keyboard,after digit#9,"{""note"":""after digit#9"",""pd_used"":0}",2,0.008333,120.000000,1
Sergio_G01_CNS-LLF5HT7Y0,s01,offmed_offstim,20260323_155558,2026-03-23 15:56:10.147673,NaN,0,reading,DIGIT_READ10_ON,110,2026-03-23 15:57:09.478545,59.285993,1.473424,,7,,,,keyboard,digit#10 shown,"{""value"":7,""note"":""digit#10 shown"",""pd_used"":1}",2,0.008333,120.000000,1
Sergio_G01_CNS-LLF5HT7Y0,s01,offmed_offstim,20260323_155558,2026-03-23 15:56:10.147673,NaN,0,reading,PROBE_COUNT_OK_10,71,2026-03-23 15:57:11.443553,60.759417,0.588667,36.200107,slot#10,NaN,,,keyboard,probe_digit#10,"{""value"":""slot#10"",""entered"":null,""rt"":36.2001074999971,""note"":""probe_digit#10""}",2,0.008333,120.000000,1
Sergio_G01_CNS-LLF5HT7Y0,s01,offmed_offstim,20260323_155558,2026-03-23 15:56:10.147673,NaN,0,reading,DIGIT_READ10_OFF,125,2026-03-23 15:57:11.543115,61.348084,0.000000,,7,,,,keyboard,digit#10 off,"{""value"":7,""note"":""digit#10 off"",""pd_used"":0}",2,0.008333,120.000000,1
Sergio_G01_CNS-LLF5HT7Y0,s01,offmed_offstim,20260323_155558,2026-03-23 15:56:10.147673,NaN,0,reading,POSTREAD_FIX10_ON,210,2026-03-23 15:57:11.545413,61.348084,1.860819,,,,,,keyboard,after digit#10,"{""note"":""after digit#10""}",2,0.008333,120.000000,1
Sergio_G01_CNS-LLF5HT7Y0,s01,offmed_offstim,20260323_155558,2026-03-23 15:56:10.147673,NaN,0,reading,POSTREAD_FIX10_OFF,225,2026-03-23 15:57:13.403630,63.208903,0.064852,,,,,,keyboard,after digit#10,"{""note"":""after digit#10"",""pd_used"":0}",2,0.008333,120.000000,1
Sergio_G01_CNS-LLF5HT7Y0,s01,offmed_offstim,20260323_155558,2026-03-23 15:56:10.147673,NaN,0,reading,DIGIT_READ11_ON,111,2026-03-23 15:57:13.465910,63.273755,0.186310,,0,,,,keyboard,digit#11 shown,"{""value"":0,""note"":""digit#11 shown"",""pd_used"":1}",2,0.008333,120.000000,1
Sergio_G01_CNS-LLF5HT7Y0,s01,offmed_offstim,20260323_155558,2026-03-23 15:56:10.147673,NaN,0,reading,PROBE_COUNT_OK_11,71,2026-03-23 15:57:13.954528,63.460065,0.401174,38.900755,slot#11,NaN,,,keyboard,probe_digit#11,"{""value"":""slot#11"",""entered"":null,""rt"":38.900755399998161,""note"":""probe_digit#11""}",2,0.008333,120.000000,1
Sergio_G01_CNS-LLF5HT7Y0,s01,offmed_offstim,20260323_155558,2026-03-23 15:56:10.147673,NaN,0,reading,DIGIT_READ11_OFF,126,2026-03-23 15:57:14.053388,63.861239,0.000000,,0,,,,keyboard,digit#11 off,"{""value"":0,""note"":""digit#11 off"",""pd_used"":0}",2,0.008333,120.000000,1
Sergio_G01_CNS-LLF5HT7Y0,s01,offmed_offstim,20260323_155558,2026-03-23 15:56:10.147673,NaN,0,reading,POSTREAD_FIX11_ON,211,2026-03-23 15:57:14.055251,63.861239,1.833227,,,,,,keyboard,after digit#11,"{""note"":""after digit#11""}",2,0.008333,120.000000,1
Sergio_G01_CNS-LLF5HT7Y0,s01,offmed_offstim,20260323_155558,2026-03-23 15:56:10.147673,NaN,0,reading,POSTREAD_FIX11_OFF,226,2026-03-23 15:57:15.887648,65.694465,0.063579,,,,,,keyboard,after digit#11,"{""note"":""after digit#11"",""pd_used"":0}",2,0.008333,120.000000,1
Sergio_G01_CNS-LLF5HT7Y0,s01,offmed_offstim,20260323_155558,2026-03-23 15:56:10.147673,NaN,0,reading,DIGIT_READ12_ON,112,2026-03-23 15:57:15.952085,65.758045,4.540215,,6,,,,keyboard,digit#12 shown,"{""value"":6,""note"":""digit#12 shown"",""pd_used"":1}",2,0.008333,120.000000,1
Sergio_G01_CNS-LLF5HT7Y0,s01,offmed_offstim,20260323_155558,2026-03-23 15:56:10.147673,NaN,0,reading,PROBE_COUNT_OK_12,71,2026-03-23 15:57:20.957304,70.298260,0.562651,45.738951,slot#12,NaN,,,keyboard,probe_digit#12,"{""value"":""slot#12"",""entered"":null,""rt"":45.738950599999953,""note"":""probe_digit#12""}",2,0.008333,120.000000,1
Sergio_G01_CNS-LLF5HT7Y0,s01,offmed_offstim,20260323_155558,2026-03-23 15:56:10.147673,NaN,0,reading,DIGIT_READ12_OFF,127,2026-03-23 15:57:21.055149,70.860910,0.000000,,6,,,,keyboard,digit#12 off,"{""value"":6,""note"":""digit#12 off"",""pd_used"":0}",2,0.008333,120.000000,1
Sergio_G01_CNS-LLF5HT7Y0,s01,offmed_offstim,20260323_155558,2026-03-23 15:56:10.147673,NaN,0,reading,POSTREAD_FIX12_ON,212,2026-03-23 15:57:21.057538,70.860910,1.608320,,,,,,keyboard,after digit#12,"{""note"":""after digit#12""}",2,0.008333,120.000000,1
Sergio_G01_CNS-LLF5HT7Y0,s01,offmed_offstim,20260323_155558,2026-03-23 15:56:10.147673,NaN,0,reading,POSTREAD_FIX12_OFF,227,2026-03-23 15:57:22.662633,72.469231,0.064065,,,,,,keyboard,after digit#12,"{""note"":""after digit#12"",""pd_used"":0}",2,0.008333,120.000000,1
Sergio_G01_CNS-LLF5HT7Y0,s01,offmed_offstim,20260323_155558,2026-03-23 15:56:10.147673,NaN,0,reading,DIGIT_READ13_ON,113,2026-03-23 15:57:22.725645,72.533296,2.108258,,3,,,,keyboard,digit#13 shown,"{""value"":3,""note"":""digit#13 shown"",""pd_used"":1}",2,0.008333,120.000000,1
Sergio_G01_CNS-LLF5HT7Y0,s01,offmed_offstim,20260323_155558,2026-03-23 15:56:10.147673,NaN,0,reading,PROBE_COUNT_OK_13,71,2026-03-23 15:57:25.413601,74.641554,0.675172,50.082244,slot#13,NaN,,,keyboard,probe_digit#13,"{""value"":""slot#13"",""entered"":null,""rt"":50.082244400000491,""note"":""probe_digit#13""}",2,0.008333,120.000000,1
Sergio_G01_CNS-LLF5HT7Y0,s01,offmed_offstim,20260323_155558,2026-03-23 15:56:10.147673,NaN,0,reading,DIGIT_READ13_OFF,128,2026-03-23 15:57:25.510662,75.316725,0.000000,,3,,,,keyboard,digit#13 off,"{""value"":3,""note"":""digit#13 off"",""pd_used"":0}",2,0.008333,120.000000,1
Sergio_G01_CNS-LLF5HT7Y0,s01,offmed_offstim,20260323_155558,2026-03-23 15:56:10.147673,NaN,0,reading,POSTREAD_FIX13_ON,213,2026-03-23 15:57:25.512560,75.316725,1.659263,,,,,,keyboard,after digit#13,"{""note"":""after digit#13""}",2,0.008333,120.000000,1
Sergio_G01_CNS-LLF5HT7Y0,s01,offmed_offstim,20260323_155558,2026-03-23 15:56:10.147673,NaN,0,reading,POSTREAD_FIX13_OFF,228,2026-03-23 15:57:27.169196,76.975989,0.064372,,,,,,keyboard,after digit#13,"{""note"":""after digit#13"",""pd_used"":0}",2,0.008333,120.000000,1
Sergio_G01_CNS-LLF5HT7Y0,s01,offmed_offstim,20260323_155558,2026-03-23 15:56:10.147673,NaN,0,reading,DIGIT_READ14_ON,114,2026-03-23 15:57:27.232973,77.040360,1.615496,,6,,,,keyboard,digit#14 shown,"{""value"":6,""note"":""digit#14 shown"",""pd_used"":1}",2,0.008333,120.000000,1
Sergio_G01_CNS-LLF5HT7Y0,s01,offmed_offstim,20260323_155558,2026-03-23 15:56:10.147673,NaN,0,reading,PROBE_COUNT_OK_14,71,2026-03-23 15:57:29.334700,78.655857,0.583849,54.096547,slot#14,NaN,,,keyboard,probe_digit#14,"{""value"":""slot#14"",""entered"":null,""rt"":54.096547299999656,""note"":""probe_digit#14""}",2,0.008333,120.000000,1
Sergio_G01_CNS-LLF5HT7Y0,s01,offmed_offstim,20260323_155558,2026-03-23 15:56:10.147673,NaN,0,reading,DIGIT_READ14_OFF,129,2026-03-23 15:57:29.433777,79.239705,0.000000,,6,,,,keyboard,digit#14 off,"{""value"":6,""note"":""digit#14 off"",""pd_used"":0}",2,0.008333,120.000000,1
Sergio_G01_CNS-LLF5HT7Y0,s01,offmed_offstim,20260323_155558,2026-03-23 15:56:10.147673,NaN,0,reading,POSTREAD_FIX14_ON,214,2026-03-23 15:57:29.436103,79.239705,1.773320,,,,,,keyboard,after digit#14,"{""note"":""after digit#14""}",2,0.008333,120.000000,1
Sergio_G01_CNS-LLF5HT7Y0,s01,offmed_offstim,20260323_155558,2026-03-23 15:56:10.147673,NaN,0,reading,POSTREAD_FIX14_OFF,229,2026-03-23 15:57:31.206248,81.013025,0.063398,,,,,,keyboard,after digit#14,"{""note"":""after digit#14"",""pd_used"":0}",2,0.008333,120.000000,1
Sergio_G01_CNS-LLF5HT7Y0,s01,offmed_offstim,20260323_155558,2026-03-23 15:56:10.147673,NaN,0,reading,DIGIT_READ15_ON,115,2026-03-23 15:57:31.269446,81.076423,1.004181,,0,,,,keyboard,digit#15 shown,"{""value"":0,""note"":""digit#15 shown"",""pd_used"":1}",2,0.008333,120.000000,1
Sergio_G01_CNS-LLF5HT7Y0,s01,offmed_offstim,20260323_155558,2026-03-23 15:56:10.147673,NaN,0,reading,PROBE_COUNT_OK_15,71,2026-03-23 15:57:32.561864,82.080605,0.384243,57.521296,slot#15,NaN,,,keyboard,probe_digit#15,"{""value"":""slot#15"",""entered"":null,""rt"":57.521295599999576,""note"":""probe_digit#15""}",2,0.008333,120.000000,1
Sergio_G01_CNS-LLF5HT7Y0,s01,offmed_offstim,20260323_155558,2026-03-23 15:56:10.147673,NaN,0,reading,DIGIT_READ15_OFF,130,2026-03-23 15:57:32.660156,82.464848,0.000000,,0,,,,keyboard,digit#15 off,"{""value"":0,""note"":""digit#15 off"",""pd_used"":0}",2,0.008333,120.000000,1
Sergio_G01_CNS-LLF5HT7Y0,s01,offmed_offstim,20260323_155558,2026-03-23 15:56:10.147673,NaN,0,reading,POSTREAD_FIX15_ON,215,2026-03-23 15:57:32.662598,82.464848,3.397999,,,,,,keyboard,after digit#15,"{""note"":""after digit#15""}",2,0.008333,120.000000,1
Sergio_G01_CNS-LLF5HT7Y0,s01,offmed_offstim,20260323_155558,2026-03-23 15:56:10.147673,NaN,0,reading,POSTREAD_FIX15_OFF,230,2026-03-23 15:57:36.054740,85.862848,0.052392,,,,,,keyboard,after digit#15,"{""note"":""after digit#15"",""pd_used"":0}",2,0.008333,120.000000,1
Sergio_G01_CNS-LLF5HT7Y0,s01,offmed_offstim,20260323_155558,2026-03-23 15:56:10.147673,NaN,0,reading,READING_END,24,2026-03-23 15:57:36.063561,85.915240,0.056616,,,,,,keyboard,,{},2,0.008333,120.000000,1
Sergio_G01_CNS-LLF5HT7Y0,s01,offmed_offstim,20260323_155558,2026-03-23 15:56:10.147673,NaN,0,reading,START_PAGE_ON,4,2026-03-23 15:57:36.163839,85.971856,0.057134,,,,,,keyboard,,"{""pd_used"":0}",2,0.008333,120.000000,1
Sergio_G01_CNS-LLF5HT7Y0,s01,offmed_offstim,20260323_155558,2026-03-23 15:56:10.147673,NaN,0,reading,START_PAGE_ON,4,2026-03-23 15:57:36.163839,85.971856,19.277112,,,,,,keyboard,,"{""pd_used"":0}",2,0.008333,120.000000,1
Sergio_G01_CNS-LLF5HT7Y0,s01,offmed_offstim,20260323_155558,2026-03-23 15:56:10.147673,NaN,0,reading,START_PAGE_ON,4,2026-03-23 15:57:36.163839,85.971856,19.655909,,,,,,keyboard,,"{""pd_used"":0}",2,0.008333,120.000000,1
Sergio_G01_CNS-LLF5HT7Y0,s01,offmed_offstim,20260323_155558,2026-03-23 15:56:10.147673,NaN,1,reading,TRIAL_CHANGE,22,2026-03-23 15:57:55.776465,105.627765,0.002483,,,,,,keyboard,trial transition,"{""note"":""trial transition""}",2,0.008333,120.000000,1
Sergio_G01_CNS-LLF5HT7Y0,s01,offmed_offstim,20260323_155558,2026-03-23 15:56:10.147673,NaN,1,reading,TRIAL_START,20,2026-03-23 15:57:55.778501,105.630249,0.061095,,,,,,keyboard,,{},2,0.008333,120.000000,1
Sergio_G01_CNS-LLF5HT7Y0,s01,offmed_offstim,20260323_155558,2026-03-23 15:56:10.147673,NaN,1,fix1,FIX1_ON,30,2026-03-23 15:57:55.883472,105.691343,3.450884,,,,,,keyboard,,"{""pd_used"":0}",2,0.008333,120.000000,1
Sergio_G01_CNS-LLF5HT7Y0,s01,offmed_offstim,20260323_155558,2026-03-23 15:56:10.147673,NaN,1,fix1,FIX1_OFF,31,2026-03-23 15:57:59.335420,109.142227,0.058200,,,,,,keyboard,,"{""pd_used"":0}",2,0.008333,120.000000,1
Sergio_G01_CNS-LLF5HT7Y0,s01,offmed_offstim,20260323_155558,2026-03-23 15:56:10.147673,NaN,1,digit,DIGIT1_ON,141,2026-03-23 15:57:59.393489,109.200427,0.557905,,0,,,,keyboard,digit#1 shown,"{""value"":0,""note"":""digit#1 shown"",""pd_used"":1}",2,0.008333,120.000000,1
Sergio_G01_CNS-LLF5HT7Y0,s01,offmed_offstim,20260323_155558,2026-03-23 15:56:10.147673,NaN,1,digit,DIGIT1_OFF,146,2026-03-23 15:57:59.951219,109.758332,0.000000,,0,,,,keyboard,digit#1 off,"{""value"":0,""note"":""digit#1 off"",""pd_used"":0}",2,0.008333,120.000000,1
Sergio_G01_CNS-LLF5HT7Y0,s01,offmed_offstim,20260323_155558,2026-03-23 15:56:10.147673,NaN,1,digit,POSTDIG_FIX1_ON,151,2026-03-23 15:57:59.953876,109.758332,1.675656,,,,,,keyboard,after digit#1,"{""note"":""after digit#1""}",2,0.008333,120.000000,1
Sergio_G01_CNS-LLF5HT7Y0,s01,offmed_offstim,20260323_155558,2026-03-23 15:56:10.147673,NaN,1,digit,POSTDIG_FIX1_OFF,156,2026-03-23 15:58:01.627174,111.433988,0.057284,,,,,,keyboard,after digit#1,"{""note"":""after digit#1"",""pd_used"":0}",2,0.008333,120.000000,1
Sergio_G01_CNS-LLF5HT7Y0,s01,offmed_offstim,20260323_155558,2026-03-23 15:56:10.147673,NaN,1,digit,DIGIT2_ON,142,2026-03-23 15:58:01.683813,111.491272,0.557312,,5,,,,keyboard,digit#2 shown,"{""value"":5,""note"":""digit#2 shown"",""pd_used"":1}",2,0.008333,120.000000,1
Sergio_G01_CNS-LLF5HT7Y0,s01,offmed_offstim,20260323_155558,2026-03-23 15:56:10.147673,NaN,1,digit,DIGIT2_OFF,147,2026-03-23 15:58:02.241796,112.048583,0.000000,,5,,,,keyboard,digit#2 off,"{""value"":5,""note"":""digit#2 off"",""pd_used"":0}",2,0.008333,120.000000,1
Sergio_G01_CNS-LLF5HT7Y0,s01,offmed_offstim,20260323_155558,2026-03-23 15:56:10.147673,NaN,1,digit,POSTDIG_FIX2_ON,152,2026-03-23 15:58:02.244380,112.048583,1.666074,,,,,,keyboard,after digit#2,"{""note"":""after digit#2""}",2,0.008333,120.000000,1
Sergio_G01_CNS-LLF5HT7Y0,s01,offmed_offstim,20260323_155558,2026-03-23 15:56:10.147673,NaN,1,digit,POSTDIG_FIX2_OFF,157,2026-03-23 15:58:03.907429,113.714657,0.056988,,,,,,keyboard,after digit#2,"{""note"":""after digit#2"",""pd_used"":0}",2,0.008333,120.000000,1
Sergio_G01_CNS-LLF5HT7Y0,s01,offmed_offstim,20260323_155558,2026-03-23 15:56:10.147673,NaN,1,digit,DIGIT3_ON,143,2026-03-23 15:58:03.963940,113.771645,0.557255,,2,,,,keyboard,digit#3 shown,"{""value"":2,""note"":""digit#3 shown"",""pd_used"":1}",2,0.008333,120.000000,1
Sergio_G01_CNS-LLF5HT7Y0,s01,offmed_offstim,20260323_155558,2026-03-23 15:56:10.147673,NaN,1,digit,DIGIT3_OFF,148,2026-03-23 15:58:04.521729,114.328900,0.000000,,2,,,,keyboard,digit#3 off,"{""value"":2,""note"":""digit#3 off"",""pd_used"":0}",2,0.008333,120.000000,1
Sergio_G01_CNS-LLF5HT7Y0,s01,offmed_offstim,20260323_155558,2026-03-23 15:56:10.147673,NaN,1,digit,POSTDIG_FIX3_ON,153,2026-03-23 15:58:04.524214,114.328900,1.908209,,,,,,keyboard,after digit#3,"{""note"":""after digit#3""}",2,0.008333,120.000000,1
Sergio_G01_CNS-LLF5HT7Y0,s01,offmed_offstim,20260323_155558,2026-03-23 15:56:10.147673,NaN,1,digit,POSTDIG_FIX3_OFF,158,2026-03-23 15:58:06.431542,116.237109,0.059375,,,,,,keyboard,after digit#3,"{""note"":""after digit#3"",""pd_used"":0}",2,0.008333,120.000000,1
Sergio_G01_CNS-LLF5HT7Y0,s01,offmed_offstim,20260323_155558,2026-03-23 15:56:10.147673,NaN,1,digit,DIGIT4_ON,144,2026-03-23 15:58:06.489581,116.296484,0.557728,,9,,,,keyboard,digit#4 shown,"{""value"":9,""note"":""digit#4 shown"",""pd_used"":1}",2,0.008333,120.000000,1
Sergio_G01_CNS-LLF5HT7Y0,s01,offmed_offstim,20260323_155558,2026-03-23 15:56:10.147673,NaN,1,digit,DIGIT4_OFF,149,2026-03-23 15:58:07.047086,116.854212,0.000000,,9,,,,keyboard,digit#4 off,"{""value"":9,""note"":""digit#4 off"",""pd_used"":0}",2,0.008333,120.000000,1
Sergio_G01_CNS-LLF5HT7Y0,s01,offmed_offstim,20260323_155558,2026-03-23 15:56:10.147673,NaN,1,digit,POSTDIG_FIX4_ON,154,2026-03-23 15:58:07.049494,116.854212,1.694090,,,,,,keyboard,after digit#4,"{""note"":""after digit#4""}",2,0.008333,120.000000,1
Sergio_G01_CNS-LLF5HT7Y0,s01,offmed_offstim,20260323_155558,2026-03-23 15:56:10.147673,NaN,1,digit,POSTDIG_FIX4_OFF,159,2026-03-23 15:58:08.740391,118.548302,0.057866,,,,,,keyboard,after digit#4,"{""note"":""after digit#4"",""pd_used"":0}",2,0.008333,120.000000,1
Sergio_G01_CNS-LLF5HT7Y0,s01,offmed_offstim,20260323_155558,2026-03-23 15:56:10.147673,NaN,1,digit,DIGIT5_ON,145,2026-03-23 15:58:08.798670,118.606168,0.558937,,2,,,,keyboard,digit#5 shown,"{""value"":2,""note"":""digit#5 shown"",""pd_used"":1}",2,0.008333,120.000000,1
Sergio_G01_CNS-LLF5HT7Y0,s01,offmed_offstim,20260323_155558,2026-03-23 15:56:10.147673,NaN,1,digit,DIGIT5_OFF,150,2026-03-23 15:58:09.358263,119.165104,0.000000,,2,,,,keyboard,digit#5 off,"{""value"":2,""note"":""digit#5 off"",""pd_used"":0}",2,0.008333,120.000000,1
Sergio_G01_CNS-LLF5HT7Y0,s01,offmed_offstim,20260323_155558,2026-03-23 15:56:10.147673,NaN,1,digit,POSTDIG_FIX5_ON,155,2026-03-23 15:58:09.361708,119.165104,3.063941,,,,,,keyboard,after digit#5,"{""note"":""after digit#5""}",2,0.008333,120.000000,1
Sergio_G01_CNS-LLF5HT7Y0,s01,offmed_offstim,20260323_155558,2026-03-23 15:56:10.147673,NaN,1,digit,POSTDIG_FIX5_OFF,160,2026-03-23 15:58:12.422737,122.229045,0.066556,,,,,,keyboard,after digit#5,"{""note"":""after digit#5"",""pd_used"":0}",2,0.008333,120.000000,1
Sergio_G01_CNS-LLF5HT7Y0,s01,offmed_offstim,20260323_155558,2026-03-23 15:56:10.147673,NaN,1,distractor,DISTRACTOR_ON,50,2026-03-23 15:58:12.488151,122.295600,2.705260,,9+1=10,,,,keyboard,,"{""value"":""9+1=10"",""isCorrectTruth"":true,""trueSum"":10,""pd_used"":1}",2,0.008333,120.000000,1
Sergio_G01_CNS-LLF5HT7Y0,s01,offmed_offstim,20260323_155558,2026-03-23 15:56:10.147673,NaN,1,distractor,DISTRACTOR_ANS,51,2026-03-23 15:58:15.536543,125.000860,0.000000,2.705260,9+1=10,F,0,,keyboard,key= (False),"{""value"":""9+1=10"",""entered"":""F"",""rt"":2.7052600999995775,""correct"":0,""note"":""key= (False)"",""truth"":true,""trueSum"":10,""shownSum"":10,""a"":9,""b"":1}",2,0.008333,120.000000,1
Sergio_G01_CNS-LLF5HT7Y0,s01,offmed_offstim,20260323_155558,2026-03-23 15:56:10.147673,NaN,1,distractor,ANS_WRONG,200,2026-03-23 15:58:15.583696,125.000860,0.444677,,,,,,keyboard,,{},2,0.008333,120.000000,1
Sergio_G01_CNS-LLF5HT7Y0,s01,offmed_offstim,20260323_155558,2026-03-23 15:56:10.147673,NaN,1,distractor,DISTRACTOR_OFF,52,2026-03-23 15:58:15.638130,125.445538,0.000000,,,,,,keyboard,,"{""pd_used"":0}",2,0.008333,120.000000,1
Sergio_G01_CNS-LLF5HT7Y0,s01,offmed_offstim,20260323_155558,2026-03-23 15:56:10.147673,NaN,1,distractor,FIX2_ON,60,2026-03-23 15:58:15.640715,125.445538,3.060585,,,,,,keyboard,immediate after response,"{""note"":""immediate after response""}",2,0.008333,120.000000,1
Sergio_G01_CNS-LLF5HT7Y0,s01,offmed_offstim,20260323_155558,2026-03-23 15:56:10.147673,NaN,1,fix2,FIX2_OFF,61,2026-03-23 15:58:18.699901,128.506122,0.060792,,,,,,keyboard,,"{""pd_used"":0}",2,0.008333,120.000000,1
Sergio_G01_CNS-LLF5HT7Y0,s01,offmed_offstim,20260323_155558,2026-03-23 15:56:10.147673,NaN,1,probe,DIGIT_RECALL_LINE_1,161,2026-03-23 15:58:18.759379,128.566914,5.016166,,1,,,,keyboard,first recall question,"{""value"":1,""note"":""first recall question"",""pd_used"":1}",2,0.008333,120.000000,1
Sergio_G01_CNS-LLF5HT7Y0,s01,offmed_offstim,20260323_155558,2026-03-23 15:56:10.147673,NaN,1,probe,PROBE_DIGIT_OK_1,71,2026-03-23 15:58:24.304120,133.583080,0.626039,5.029111,slot#1,NaN,,,keyboard,probe_digit#1,"{""value"":""slot#1"",""entered"":null,""rt"":5.029110600000422,""note"":""probe_digit#1""}",2,0.008333,120.000000,1
Sergio_G01_CNS-LLF5HT7Y0,s01,offmed_offstim,20260323_155558,2026-03-23 15:56:10.147673,NaN,1,probe,DIGIT1_OFF,146,2026-03-23 15:58:24.402918,134.209119,0.000000,,2,,,,keyboard,digit#1 off,"{""value"":2,""note"":""digit#1 off"",""pd_used"":0}",2,0.008333,120.000000,1
Sergio_G01_CNS-LLF5HT7Y0,s01,offmed_offstim,20260323_155558,2026-03-23 15:56:10.147673,NaN,1,probe,POSTDIG_FIX1_ON,151,2026-03-23 15:58:24.405700,134.209119,1.862972,,,,,,keyboard,after digit#1,"{""note"":""after digit#1""}",2,0.008333,120.000000,1
Sergio_G01_CNS-LLF5HT7Y0,s01,offmed_offstim,20260323_155558,2026-03-23 15:56:10.147673,NaN,1,probe,POSTDIG_FIX1_OFF,156,2026-03-23 15:58:26.265074,136.072091,0.063940,,,,,,keyboard,after digit#1,"{""note"":""after digit#1"",""pd_used"":0}",2,0.008333,120.000000,1
Sergio_G01_CNS-LLF5HT7Y0,s01,offmed_offstim,20260323_155558,2026-03-23 15:56:10.147673,NaN,1,probe,DIGIT_RECALL_LINE_2,162,2026-03-23 15:58:26.327295,136.136031,0.983032,,2,,,,keyboard,next recall question,"{""value"":2,""note"":""next recall question"",""pd_used"":1}",2,0.008333,120.000000,1
Sergio_G01_CNS-LLF5HT7Y0,s01,offmed_offstim,20260323_155558,2026-03-23 15:56:10.147673,NaN,1,probe,PROBE_DIGIT_OK_2,71,2026-03-23 15:58:27.634313,137.119063,0.420385,8.565093,slot#2,NaN,,,keyboard,probe_digit#2,"{""value"":""slot#2"",""entered"":null,""rt"":8.5650932999997167,""note"":""probe_digit#2""}",2,0.008333,120.000000,1
Sergio_G01_CNS-LLF5HT7Y0,s01,offmed_offstim,20260323_155558,2026-03-23 15:56:10.147673,NaN,1,probe,DIGIT2_OFF,147,2026-03-23 15:58:27.734013,137.539448,0.000000,,2,,,,keyboard,digit#2 off,"{""value"":2,""note"":""digit#2 off"",""pd_used"":0}",2,0.008333,120.000000,1
Sergio_G01_CNS-LLF5HT7Y0,s01,offmed_offstim,20260323_155558,2026-03-23 15:56:10.147673,NaN,1,probe,POSTDIG_FIX2_ON,152,2026-03-23 15:58:27.736292,137.539448,1.632371,,,,,,keyboard,after digit#2,"{""note"":""after digit#2""}",2,0.008333,120.000000,1
Sergio_G01_CNS-LLF5HT7Y0,s01,offmed_offstim,20260323_155558,2026-03-23 15:56:10.147673,NaN,1,probe,POSTDIG_FIX2_OFF,157,2026-03-23 15:58:29.364707,139.171819,0.062888,,,,,,keyboard,after digit#2,"{""note"":""after digit#2"",""pd_used"":0}",2,0.008333,120.000000,1
Sergio_G01_CNS-LLF5HT7Y0,s01,offmed_offstim,20260323_155558,2026-03-23 15:56:10.147673,NaN,1,probe,DIGIT_RECALL_LINE_3,163,2026-03-23 15:58:29.427068,139.234707,2.605978,,3,,,,keyboard,next recall question,"{""value"":3,""note"":""next recall question"",""pd_used"":1}",2,0.008333,120.000000,1
Sergio_G01_CNS-LLF5HT7Y0,s01,offmed_offstim,20260323_155558,2026-03-23 15:56:10.147673,NaN,1,probe,PROBE_DIGIT_OK_3,71,2026-03-23 15:58:32.525445,141.840685,0.589562,13.286716,slot#3,NaN,,,keyboard,probe_digit#3,"{""value"":""slot#3"",""entered"":null,""rt"":13.286715899997944,""note"":""probe_digit#3""}",2,0.008333,120.000000,1
Sergio_G01_CNS-LLF5HT7Y0,s01,offmed_offstim,20260323_155558,2026-03-23 15:56:10.147673,NaN,1,probe,DIGIT3_OFF,148,2026-03-23 15:58:32.625431,142.430247,0.000000,,2,,,,keyboard,digit#3 off,"{""value"":2,""note"":""digit#3 off"",""pd_used"":0}",2,0.008333,120.000000,1
Sergio_G01_CNS-LLF5HT7Y0,s01,offmed_offstim,20260323_155558,2026-03-23 15:56:10.147673,NaN,1,probe,POSTDIG_FIX3_ON,153,2026-03-23 15:58:32.628017,142.430247,1.625352,,,,,,keyboard,after digit#3,"{""note"":""after digit#3""}",2,0.008333,120.000000,1
Sergio_G01_CNS-LLF5HT7Y0,s01,offmed_offstim,20260323_155558,2026-03-23 15:56:10.147673,NaN,1,probe,POSTDIG_FIX3_OFF,158,2026-03-23 15:58:34.248575,144.055599,0.063944,,,,,,keyboard,after digit#3,"{""note"":""after digit#3"",""pd_used"":0}",2,0.008333,120.000000,1
Sergio_G01_CNS-LLF5HT7Y0,s01,offmed_offstim,20260323_155558,2026-03-23 15:56:10.147673,NaN,1,probe,DIGIT_RECALL_LINE_4,164,2026-03-23 15:58:34.311956,144.119543,1.799553,,4,,,,keyboard,next recall question,"{""value"":4,""note"":""next recall question"",""pd_used"":1}",2,0.008333,120.000000,1
Sergio_G01_CNS-LLF5HT7Y0,s01,offmed_offstim,20260323_155558,2026-03-23 15:56:10.147673,NaN,1,probe,PROBE_DIGIT_OK_4,71,2026-03-23 15:58:36.543416,145.919096,0.528492,17.365127,slot#4,NaN,,,keyboard,probe_digit#4,"{""value"":""slot#4"",""entered"":null,""rt"":17.365126799999416,""note"":""probe_digit#4""}",2,0.008333,120.000000,1
Sergio_G01_CNS-LLF5HT7Y0,s01,offmed_offstim,20260323_155558,2026-03-23 15:56:10.147673,NaN,1,probe,DIGIT4_OFF,149,2026-03-23 15:58:36.641497,146.447588,0.000000,,2,,,,keyboard,digit#4 off,"{""value"":2,""note"":""digit#4 off"",""pd_used"":0}",2,0.008333,120.000000,1
Sergio_G01_CNS-LLF5HT7Y0,s01,offmed_offstim,20260323_155558,2026-03-23 15:56:10.147673,NaN,1,probe,POSTDIG_FIX4_ON,154,2026-03-23 15:58:36.644368,146.447588,1.872414,,,,,,keyboard,after digit#4,"{""note"":""after digit#4""}",2,0.008333,120.000000,1
Sergio_G01_CNS-LLF5HT7Y0,s01,offmed_offstim,20260323_155558,2026-03-23 15:56:10.147673,NaN,1,probe,POSTDIG_FIX4_OFF,159,2026-03-23 15:58:38.512424,148.320003,0.066699,,,,,,keyboard,after digit#4,"{""note"":""after digit#4"",""pd_used"":0}",2,0.008333,120.000000,1
Sergio_G01_CNS-LLF5HT7Y0,s01,offmed_offstim,20260323_155558,2026-03-23 15:56:10.147673,NaN,1,probe,DIGIT_RECALL_LINE_5,165,2026-03-23 15:58:38.578387,148.386701,1.304530,,5,,,,keyboard,next recall question,"{""value"":5,""note"":""next recall question"",""pd_used"":1}",2,0.008333,120.000000,1
Sergio_G01_CNS-LLF5HT7Y0,s01,offmed_offstim,20260323_155558,2026-03-23 15:56:10.147673,NaN,1,probe,PROBE_DIGIT_OK_5,71,2026-03-23 15:58:40.297239,149.691231,0.512499,21.137262,slot#5,NaN,,,keyboard,probe_digit#5,"{""value"":""slot#5"",""entered"":null,""rt"":21.137261799998669,""note"":""probe_digit#5""}",2,0.008333,120.000000,1
Sergio_G01_CNS-LLF5HT7Y0,s01,offmed_offstim,20260323_155558,2026-03-23 15:56:10.147673,NaN,1,probe,DIGIT5_OFF,150,2026-03-23 15:58:40.395987,150.203731,0.000000,,2,,,,keyboard,digit#5 off,"{""value"":2,""note"":""digit#5 off"",""pd_used"":0}",2,0.008333,120.000000,1
Sergio_G01_CNS-LLF5HT7Y0,s01,offmed_offstim,20260323_155558,2026-03-23 15:56:10.147673,NaN,1,probe,POSTDIG_FIX5_ON,155,2026-03-23 15:58:40.399384,150.203731,3.468034,,,,,,keyboard,after digit#5,"{""note"":""after digit#5""}",2,0.008333,120.000000,1
Sergio_G01_CNS-LLF5HT7Y0,s01,offmed_offstim,20260323_155558,2026-03-23 15:56:10.147673,NaN,1,probe,POSTDIG_FIX5_OFF,160,2026-03-23 15:58:43.864625,153.671765,0.054792,,,,,,keyboard,after digit#5,"{""note"":""after digit#5"",""pd_used"":0}",2,0.008333,120.000000,1
Sergio_G01_CNS-LLF5HT7Y0,s01,offmed_offstim,20260323_155558,2026-03-23 15:56:10.147673,NaN,1,probe,PROBE_DONE,73,2026-03-23 15:58:43.874857,153.726557,0.002056,,,,,,keyboard,probe complete,"{""value"":"""",""note"":""probe complete""}",2,0.008333,120.000000,1
Sergio_G01_CNS-LLF5HT7Y0,s01,offmed_offstim,20260323_155558,2026-03-23 15:56:10.147673,NaN,1,probe,TRIAL_END,21,2026-03-23 15:58:43.876700,153.728612,0.044401,,,,,,keyboard,,{},2,0.008333,120.000000,1
Sergio_G01_CNS-LLF5HT7Y0,s01,offmed_offstim,20260323_155558,2026-03-23 15:56:10.147673,NaN,1,probe,BLOCK_END,11,2026-03-23 15:58:43.921457,153.773013,0.236933,,,,,,keyboard,,{},2,0.008333,120.000000,1
Sergio_G01_CNS-LLF5HT7Y0,s01,offmed_offstim,20260323_155558,2026-03-23 15:56:10.147673,NaN,1,probe,SESSION_END,3,2026-03-23 15:58:44.157917,154.009947,NaN,,,,,,keyboard,,{},2,0.008333,120.000000,1
