file_version,subject,condition,session,task_start_time,block,trial,phase,event_name,event_code,wall_clock,t_rel_sec,duration_to_next,rt,value_shown,entered_value,correct,key_name,device,note,json,screen_index,ifi,refresh_hz,pd_used
Sergio_G01_CNS-LLF5HT7Y0,s01,offmed_offstim,20260322_162107,2026-03-22 16:21:17.399765,NaN,NaN,,MIC_NOISEFLOOR,6,2026-03-22 16:21:20.469876,3.069937,4.164288,,,,,,keyboard,,{},2,NaN,NaN,1
Sergio_G01_CNS-LLF5HT7Y0,s01,offmed_offstim,20260322_162107,2026-03-22 16:21:17.399765,NaN,NaN,,MIC_REC_SPEECH,7,2026-03-22 16:21:24.633954,7.234225,6.614396,,,,,,keyboard,,{},2,NaN,NaN,1
Sergio_G01_CNS-LLF5HT7Y0,s01,offmed_offstim,20260322_162107,2026-03-22 16:21:17.399765,NaN,NaN,,SESSION_START,1,2026-03-22 16:21:38.702398,21.302475,0.001116,,,,,,keyboard,,{},2,0.016667,60.000000,1
Sergio_G01_CNS-LLF5HT7Y0,s01,offmed_offstim,20260322_162107,2026-03-22 16:21:17.399765,NaN,NaN,,BLOCK_START,10,2026-03-22 16:21:38.703199,21.303590,0.014940,,,,,,keyboard,,{},2,0.016667,60.000000,1
Sergio_G01_CNS-LLF5HT7Y0,s01,offmed_offstim,20260322_162107,2026-03-22 16:21:17.399765,NaN,0,reading,START_PAGE_ON,4,2026-03-22 16:21:38.718361,21.318530,0.018434,,,,,,keyboard,,"{""pd_used"":0}",2,0.016667,60.000000,1
Sergio_G01_CNS-LLF5HT7Y0,s01,offmed_offstim,20260322_162107,2026-03-22 16:21:17.399765,NaN,0,reading,START_PAGE_ON,4,2026-03-22 16:21:38.718361,21.318530,61.819157,,,,,,keyboard,,"{""pd_used"":0}",2,0.016667,60.000000,1
Sergio_G01_CNS-LLF5HT7Y0,s01,offmed_offstim,20260322_162107,2026-03-22 16:21:17.399765,NaN,0,reading,START_PAGE_ON,4,2026-03-22 16:21:38.718361,21.318530,62.128322,,,,,,keyboard,,"{""pd_used"":0}",2,0.016667,60.000000,1
Sergio_G01_CNS-LLF5HT7Y0,s01,offmed_offstim,20260322_162107,2026-03-22 16:21:17.399765,NaN,0,reading,READING_START,23,2026-03-22 16:22:40.846730,83.446852,0.010669,,,,,,keyboard,,{},2,0.016667,60.000000,1
Sergio_G01_CNS-LLF5HT7Y0,s01,offmed_offstim,20260322_162107,2026-03-22 16:21:17.399765,NaN,0,reading,DIGIT_READ1_ON,101,2026-03-22 16:22:40.857348,83.457521,1.905735,,1,,,,keyboard,digit#1 shown,"{""value"":1,""note"":""digit#1 shown"",""pd_used"":1}",2,0.016667,60.000000,1
Sergio_G01_CNS-LLF5HT7Y0,s01,offmed_offstim,20260322_162107,2026-03-22 16:21:17.399765,NaN,0,reading,PROBE_COUNT_OK_1,71,2026-03-22 16:22:43.260410,85.363256,0.508208,64.058634,slot#1,NaN,,,keyboard,probe_digit#1,"{""value"":""slot#1"",""entered"":null,""rt"":64.05863380000028,""note"":""probe_digit#1""}",2,0.016667,60.000000,1
Sergio_G01_CNS-LLF5HT7Y0,s01,offmed_offstim,20260322_162107,2026-03-22 16:21:17.399765,NaN,0,reading,DIGIT_READ1_OFF,116,2026-03-22 16:22:43.271236,85.871464,0.000000,,1,,,,keyboard,digit#1 off,"{""value"":1,""note"":""digit#1 off"",""pd_used"":0}",2,0.016667,60.000000,1
Sergio_G01_CNS-LLF5HT7Y0,s01,offmed_offstim,20260322_162107,2026-03-22 16:21:17.399765,NaN,0,reading,POSTREAD_FIX1_ON,201,2026-03-22 16:22:43.272476,85.871464,1.948106,,,,,,keyboard,after digit#1,"{""note"":""after digit#1""}",2,0.016667,60.000000,1
Sergio_G01_CNS-LLF5HT7Y0,s01,offmed_offstim,20260322_162107,2026-03-22 16:21:17.399765,NaN,0,reading,POSTREAD_FIX1_OFF,216,2026-03-22 16:22:45.219410,87.819570,0.036747,,,,,,keyboard,after digit#1,"{""note"":""after digit#1"",""pd_used"":0}",2,0.016667,60.000000,1
Sergio_G01_CNS-LLF5HT7Y0,s01,offmed_offstim,20260322_162107,2026-03-22 16:21:17.399765,NaN,0,reading,DIGIT_READ2_ON,102,2026-03-22 16:22:45.256225,87.856317,0.577502,,2,,,,keyboard,digit#2 shown,"{""value"":2,""note"":""digit#2 shown"",""pd_used"":1}",2,0.016667,60.000000,1
Sergio_G01_CNS-LLF5HT7Y0,s01,offmed_offstim,20260322_162107,2026-03-22 16:21:17.399765,NaN,0,reading,PROBE_COUNT_OK_2,71,2026-03-22 16:22:46.337939,88.433820,0.512232,67.129198,slot#2,NaN,,,keyboard,probe_digit#2,"{""value"":""slot#2"",""entered"":null,""rt"":67.129197600000225,""note"":""probe_digit#2""}",2,0.016667,60.000000,1
Sergio_G01_CNS-LLF5HT7Y0,s01,offmed_offstim,20260322_162107,2026-03-22 16:21:17.399765,NaN,0,reading,DIGIT_READ2_OFF,117,2026-03-22 16:22:46.345776,88.946052,0.000000,,2,,,,keyboard,digit#2 off,"{""value"":2,""note"":""digit#2 off"",""pd_used"":0}",2,0.016667,60.000000,1
Sergio_G01_CNS-LLF5HT7Y0,s01,offmed_offstim,20260322_162107,2026-03-22 16:21:17.399765,NaN,0,reading,POSTREAD_FIX2_ON,202,2026-03-22 16:22:46.346686,88.946052,1.571005,,,,,,keyboard,after digit#2,"{""note"":""after digit#2""}",2,0.016667,60.000000,1
Sergio_G01_CNS-LLF5HT7Y0,s01,offmed_offstim,20260322_162107,2026-03-22 16:21:17.399765,NaN,0,reading,POSTREAD_FIX2_OFF,217,2026-03-22 16:22:47.916928,90.517057,0.020562,,,,,,keyboard,after digit#2,"{""note"":""after digit#2"",""pd_used"":0}",2,0.016667,60.000000,1
Sergio_G01_CNS-LLF5HT7Y0,s01,offmed_offstim,20260322_162107,2026-03-22 16:21:17.399765,NaN,0,reading,DIGIT_READ3_ON,103,2026-03-22 16:22:47.937357,90.537619,0.838892,,1,,,,keyboard,digit#3 shown,"{""value"":1,""note"":""digit#3 shown"",""pd_used"":1}",2,0.016667,60.000000,1
Sergio_G01_CNS-LLF5HT7Y0,s01,offmed_offstim,20260322_162107,2026-03-22 16:21:17.399765,NaN,0,reading,PROBE_COUNT_OK_3,71,2026-03-22 16:22:49.281983,91.376511,0.513552,70.071889,slot#3,NaN,,,keyboard,probe_digit#3,"{""value"":""slot#3"",""entered"":null,""rt"":70.071889000000283,""note"":""probe_digit#3""}",2,0.016667,60.000000,1
Sergio_G01_CNS-LLF5HT7Y0,s01,offmed_offstim,20260322_162107,2026-03-22 16:21:17.399765,NaN,0,reading,DIGIT_READ3_OFF,118,2026-03-22 16:22:49.289935,91.890063,0.000000,,1,,,,keyboard,digit#3 off,"{""value"":1,""note"":""digit#3 off"",""pd_used"":0}",2,0.016667,60.000000,1
Sergio_G01_CNS-LLF5HT7Y0,s01,offmed_offstim,20260322_162107,2026-03-22 16:21:17.399765,NaN,0,reading,POSTREAD_FIX3_ON,203,2026-03-22 16:22:49.290777,91.890063,1.570190,,,,,,keyboard,after digit#3,"{""note"":""after digit#3""}",2,0.016667,60.000000,1
Sergio_G01_CNS-LLF5HT7Y0,s01,offmed_offstim,20260322_162107,2026-03-22 16:21:17.399765,NaN,0,reading,POSTREAD_FIX3_OFF,218,2026-03-22 16:22:50.860358,93.460253,0.027247,,,,,,keyboard,after digit#3,"{""note"":""after digit#3"",""pd_used"":0}",2,0.016667,60.000000,1
Sergio_G01_CNS-LLF5HT7Y0,s01,offmed_offstim,20260322_162107,2026-03-22 16:21:17.399765,NaN,0,reading,DIGIT_READ4_ON,104,2026-03-22 16:22:50.887971,93.487500,0.616319,,4,,,,keyboard,digit#4 shown,"{""value"":4,""note"":""digit#4 shown"",""pd_used"":1}",2,0.016667,60.000000,1
Sergio_G01_CNS-LLF5HT7Y0,s01,offmed_offstim,20260322_162107,2026-03-22 16:21:17.399765,NaN,0,reading,PROBE_COUNT_OK_4,71,2026-03-22 16:22:52.059057,94.103820,0.563406,72.799197,slot#4,NaN,,,keyboard,probe_digit#4,"{""value"":""slot#4"",""entered"":null,""rt"":72.799197400000139,""note"":""probe_digit#4""}",2,0.016667,60.000000,1
Sergio_G01_CNS-LLF5HT7Y0,s01,offmed_offstim,20260322_162107,2026-03-22 16:21:17.399765,NaN,0,reading,DIGIT_READ4_OFF,119,2026-03-22 16:22:52.067420,94.667225,0.000000,,4,,,,keyboard,digit#4 off,"{""value"":4,""note"":""digit#4 off"",""pd_used"":0}",2,0.016667,60.000000,1
Sergio_G01_CNS-LLF5HT7Y0,s01,offmed_offstim,20260322_162107,2026-03-22 16:21:17.399765,NaN,0,reading,POSTREAD_FIX4_ON,204,2026-03-22 16:22:52.068848,94.667225,1.929798,,,,,,keyboard,after digit#4,"{""note"":""after digit#4""}",2,0.016667,60.000000,1
Sergio_G01_CNS-LLF5HT7Y0,s01,offmed_offstim,20260322_162107,2026-03-22 16:21:17.399765,NaN,0,reading,POSTREAD_FIX4_OFF,219,2026-03-22 16:22:53.997255,96.597023,0.024457,,,,,,keyboard,after digit#4,"{""note"":""after digit#4"",""pd_used"":0}",2,0.016667,60.000000,1
Sergio_G01_CNS-LLF5HT7Y0,s01,offmed_offstim,20260322_162107,2026-03-22 16:21:17.399765,NaN,0,reading,DIGIT_READ5_ON,105,2026-03-22 16:22:54.021967,96.621480,0.492535,,6,,,,keyboard,digit#5 shown,"{""value"":6,""note"":""digit#5 shown"",""pd_used"":1}",2,0.016667,60.000000,1
Sergio_G01_CNS-LLF5HT7Y0,s01,offmed_offstim,20260322_162107,2026-03-22 16:21:17.399765,NaN,0,reading,PROBE_COUNT_OK_5,71,2026-03-22 16:22:54.985070,97.114016,0.481121,75.809394,slot#5,NaN,,,keyboard,probe_digit#5,"{""value"":""slot#5"",""entered"":null,""rt"":75.809393500000169,""note"":""probe_digit#5""}",2,0.016667,60.000000,1
Sergio_G01_CNS-LLF5HT7Y0,s01,offmed_offstim,20260322_162107,2026-03-22 16:21:17.399765,NaN,0,reading,DIGIT_READ5_OFF,120,2026-03-22 16:22:54.995260,97.595137,0.000000,,6,,,,keyboard,digit#5 off,"{""value"":6,""note"":""digit#5 off"",""pd_used"":0}",2,0.016667,60.000000,1
Sergio_G01_CNS-LLF5HT7Y0,s01,offmed_offstim,20260322_162107,2026-03-22 16:21:17.399765,NaN,0,reading,POSTREAD_FIX5_ON,205,2026-03-22 16:22:54.996657,97.595137,1.902968,,,,,,keyboard,after digit#5,"{""note"":""after digit#5""}",2,0.016667,60.000000,1
Sergio_G01_CNS-LLF5HT7Y0,s01,offmed_offstim,20260322_162107,2026-03-22 16:21:17.399765,NaN,0,reading,POSTREAD_FIX5_OFF,220,2026-03-22 16:22:56.898184,99.498105,0.022731,,,,,,keyboard,after digit#5,"{""note"":""after digit#5"",""pd_used"":0}",2,0.016667,60.000000,1
Sergio_G01_CNS-LLF5HT7Y0,s01,offmed_offstim,20260322_162107,2026-03-22 16:21:17.399765,NaN,0,reading,DIGIT_READ6_ON,106,2026-03-22 16:22:56.920571,99.520836,0.585131,,2,,,,keyboard,digit#6 shown,"{""value"":2,""note"":""digit#6 shown"",""pd_used"":1}",2,0.016667,60.000000,1
Sergio_G01_CNS-LLF5HT7Y0,s01,offmed_offstim,20260322_162107,2026-03-22 16:21:17.399765,NaN,0,reading,PROBE_COUNT_OK_6,71,2026-03-22 16:22:58.061572,100.105967,0.564876,78.801345,slot#6,NaN,,,keyboard,probe_digit#6,"{""value"":""slot#6"",""entered"":null,""rt"":78.8013446,""note"":""probe_digit#6""}",2,0.016667,60.000000,1
Sergio_G01_CNS-LLF5HT7Y0,s01,offmed_offstim,20260322_162107,2026-03-22 16:21:17.399765,NaN,0,reading,DIGIT_READ6_OFF,121,2026-03-22 16:22:58.070840,100.670843,0.000000,,2,,,,keyboard,digit#6 off,"{""value"":2,""note"":""digit#6 off"",""pd_used"":0}",2,0.016667,60.000000,1
Sergio_G01_CNS-LLF5HT7Y0,s01,offmed_offstim,20260322_162107,2026-03-22 16:21:17.399765,NaN,0,reading,POSTREAD_FIX6_ON,206,2026-03-22 16:22:58.072068,100.670843,1.853062,,,,,,keyboard,after digit#6,"{""note"":""after digit#6""}",2,0.016667,60.000000,1
Sergio_G01_CNS-LLF5HT7Y0,s01,offmed_offstim,20260322_162107,2026-03-22 16:21:17.399765,NaN,0,reading,POSTREAD_FIX6_OFF,221,2026-03-22 16:22:59.923765,102.523905,0.032215,,,,,,keyboard,after digit#6,"{""note"":""after digit#6"",""pd_used"":0}",2,0.016667,60.000000,1
Sergio_G01_CNS-LLF5HT7Y0,s01,offmed_offstim,20260322_162107,2026-03-22 16:21:17.399765,NaN,0,reading,DIGIT_READ7_ON,107,2026-03-22 16:22:59.955884,102.556120,0.608515,,6,,,,keyboard,digit#7 shown,"{""value"":6,""note"":""digit#7 shown"",""pd_used"":1}",2,0.016667,60.000000,1
Sergio_G01_CNS-LLF5HT7Y0,s01,offmed_offstim,20260322_162107,2026-03-22 16:21:17.399765,NaN,0,reading,PROBE_COUNT_OK_7,71,2026-03-22 16:23:01.000098,103.164635,0.444019,81.860013,slot#7,NaN,,,keyboard,probe_digit#7,"{""value"":""slot#7"",""entered"":null,""rt"":81.860012900000129,""note"":""probe_digit#7""}",2,0.016667,60.000000,1
Sergio_G01_CNS-LLF5HT7Y0,s01,offmed_offstim,20260322_162107,2026-03-22 16:21:17.399765,NaN,0,reading,DIGIT_READ7_OFF,122,2026-03-22 16:23:01.008531,103.608654,0.000000,,6,,,,keyboard,digit#7 off,"{""value"":6,""note"":""digit#7 off"",""pd_used"":0}",2,0.016667,60.000000,1
Sergio_G01_CNS-LLF5HT7Y0,s01,offmed_offstim,20260322_162107,2026-03-22 16:21:17.399765,NaN,0,reading,POSTREAD_FIX7_ON,207,2026-03-22 16:23:01.009744,103.608654,1.538708,,,,,,keyboard,after digit#7,"{""note"":""after digit#7""}",2,0.016667,60.000000,1
Sergio_G01_CNS-LLF5HT7Y0,s01,offmed_offstim,20260322_162107,2026-03-22 16:21:17.399765,NaN,0,reading,POSTREAD_FIX7_OFF,222,2026-03-22 16:23:02.547711,105.147362,0.023518,,,,,,keyboard,after digit#7,"{""note"":""after digit#7"",""pd_used"":0}",2,0.016667,60.000000,1
Sergio_G01_CNS-LLF5HT7Y0,s01,offmed_offstim,20260322_162107,2026-03-22 16:21:17.399765,NaN,0,reading,DIGIT_READ8_ON,108,2026-03-22 16:23:02.571177,105.170881,0.601400,,6,,,,keyboard,digit#8 shown,"{""value"":6,""note"":""digit#8 shown"",""pd_used"":1}",2,0.016667,60.000000,1
Sergio_G01_CNS-LLF5HT7Y0,s01,offmed_offstim,20260322_162107,2026-03-22 16:21:17.399765,NaN,0,reading,PROBE_COUNT_OK_8,71,2026-03-22 16:23:03.615131,105.772281,0.451144,84.467659,slot#8,NaN,,,keyboard,probe_digit#8,"{""value"":""slot#8"",""entered"":null,""rt"":84.46765890000006,""note"":""probe_digit#8""}",2,0.016667,60.000000,1
Sergio_G01_CNS-LLF5HT7Y0,s01,offmed_offstim,20260322_162107,2026-03-22 16:21:17.399765,NaN,0,reading,DIGIT_READ8_OFF,123,2026-03-22 16:23:03.623267,106.223425,0.000000,,6,,,,keyboard,digit#8 off,"{""value"":6,""note"":""digit#8 off"",""pd_used"":0}",2,0.016667,60.000000,1
Sergio_G01_CNS-LLF5HT7Y0,s01,offmed_offstim,20260322_162107,2026-03-22 16:21:17.399765,NaN,0,reading,POSTREAD_FIX8_ON,208,2026-03-22 16:23:03.624256,106.223425,1.673657,,,,,,keyboard,after digit#8,"{""note"":""after digit#8""}",2,0.016667,60.000000,1
Sergio_G01_CNS-LLF5HT7Y0,s01,offmed_offstim,20260322_162107,2026-03-22 16:21:17.399765,NaN,0,reading,POSTREAD_FIX8_OFF,223,2026-03-22 16:23:05.297586,107.897082,0.023531,,,,,,keyboard,after digit#8,"{""note"":""after digit#8"",""pd_used"":0}",2,0.016667,60.000000,1
Sergio_G01_CNS-LLF5HT7Y0,s01,offmed_offstim,20260322_162107,2026-03-22 16:21:17.399765,NaN,0,reading,DIGIT_READ9_ON,109,2026-03-22 16:23:05.320483,107.920613,0.521795,,5,,,,keyboard,digit#9 shown,"{""value"":5,""note"":""digit#9 shown"",""pd_used"":1}",2,0.016667,60.000000,1
Sergio_G01_CNS-LLF5HT7Y0,s01,offmed_offstim,20260322_162107,2026-03-22 16:21:17.399765,NaN,0,reading,PROBE_COUNT_OK_9,71,2026-03-22 16:23:06.397652,108.442408,0.563880,87.137786,slot#9,NaN,,,keyboard,probe_digit#9,"{""value"":""slot#9"",""entered"":null,""rt"":87.137786000000233,""note"":""probe_digit#9""}",2,0.016667,60.000000,1
Sergio_G01_CNS-LLF5HT7Y0,s01,offmed_offstim,20260322_162107,2026-03-22 16:21:17.399765,NaN,0,reading,DIGIT_READ9_OFF,124,2026-03-22 16:23:06.406020,109.006288,0.000000,,5,,,,keyboard,digit#9 off,"{""value"":5,""note"":""digit#9 off"",""pd_used"":0}",2,0.016667,60.000000,1
Sergio_G01_CNS-LLF5HT7Y0,s01,offmed_offstim,20260322_162107,2026-03-22 16:21:17.399765,NaN,0,reading,POSTREAD_FIX9_ON,209,2026-03-22 16:23:06.406777,109.006288,1.719142,,,,,,keyboard,after digit#9,"{""note"":""after digit#9""}",2,0.016667,60.000000,1
Sergio_G01_CNS-LLF5HT7Y0,s01,offmed_offstim,20260322_162107,2026-03-22 16:21:17.399765,NaN,0,reading,POSTREAD_FIX9_OFF,224,2026-03-22 16:23:08.125475,110.725430,0.029703,,,,,,keyboard,after digit#9,"{""note"":""after digit#9"",""pd_used"":0}",2,0.016667,60.000000,1
Sergio_G01_CNS-LLF5HT7Y0,s01,offmed_offstim,20260322_162107,2026-03-22 16:21:17.399765,NaN,0,reading,DIGIT_READ10_ON,110,2026-03-22 16:23:08.155170,110.755133,0.501095,,4,,,,keyboard,digit#10 shown,"{""value"":4,""note"":""digit#10 shown"",""pd_used"":1}",2,0.016667,60.000000,1
Sergio_G01_CNS-LLF5HT7Y0,s01,offmed_offstim,20260322_162107,2026-03-22 16:21:17.399765,NaN,0,reading,PROBE_COUNT_OK_10,71,2026-03-22 16:23:09.277281,111.256228,0.629893,89.951606,slot#10,NaN,,,keyboard,probe_digit#10,"{""value"":""slot#10"",""entered"":null,""rt"":89.951605700000073,""note"":""probe_digit#10""}",2,0.016667,60.000000,1
Sergio_G01_CNS-LLF5HT7Y0,s01,offmed_offstim,20260322_162107,2026-03-22 16:21:17.399765,NaN,0,reading,DIGIT_READ10_OFF,125,2026-03-22 16:23:09.285847,111.886121,0.000000,,4,,,,keyboard,digit#10 off,"{""value"":4,""note"":""digit#10 off"",""pd_used"":0}",2,0.016667,60.000000,1
Sergio_G01_CNS-LLF5HT7Y0,s01,offmed_offstim,20260322_162107,2026-03-22 16:21:17.399765,NaN,0,reading,POSTREAD_FIX10_ON,210,2026-03-22 16:23:09.286597,111.886121,1.861982,,,,,,keyboard,after digit#10,"{""note"":""after digit#10""}",2,0.016667,60.000000,1
Sergio_G01_CNS-LLF5HT7Y0,s01,offmed_offstim,20260322_162107,2026-03-22 16:21:17.399765,NaN,0,reading,POSTREAD_FIX10_OFF,225,2026-03-22 16:23:11.148420,113.748103,0.025240,,,,,,keyboard,after digit#10,"{""note"":""after digit#10"",""pd_used"":0}",2,0.016667,60.000000,1
Sergio_G01_CNS-LLF5HT7Y0,s01,offmed_offstim,20260322_162107,2026-03-22 16:21:17.399765,NaN,0,reading,DIGIT_READ11_ON,111,2026-03-22 16:23:11.173582,113.773343,0.550088,,6,,,,keyboard,digit#11 shown,"{""value"":6,""note"":""digit#11 shown"",""pd_used"":1}",2,0.016667,60.000000,1
Sergio_G01_CNS-LLF5HT7Y0,s01,offmed_offstim,20260322_162107,2026-03-22 16:21:17.399765,NaN,0,reading,PROBE_COUNT_OK_11,71,2026-03-22 16:23:12.188111,114.323431,0.473568,93.018809,slot#11,NaN,,,keyboard,probe_digit#11,"{""value"":""slot#11"",""entered"":null,""rt"":93.018808600000284,""note"":""probe_digit#11""}",2,0.016667,60.000000,1
Sergio_G01_CNS-LLF5HT7Y0,s01,offmed_offstim,20260322_162107,2026-03-22 16:21:17.399765,NaN,0,reading,DIGIT_READ11_OFF,126,2026-03-22 16:23:12.197332,114.796999,0.000000,,6,,,,keyboard,digit#11 off,"{""value"":6,""note"":""digit#11 off"",""pd_used"":0}",2,0.016667,60.000000,1
Sergio_G01_CNS-LLF5HT7Y0,s01,offmed_offstim,20260322_162107,2026-03-22 16:21:17.399765,NaN,0,reading,POSTREAD_FIX11_ON,211,2026-03-22 16:23:12.198107,114.796999,1.843738,,,,,,keyboard,after digit#11,"{""note"":""after digit#11""}",2,0.016667,60.000000,1
Sergio_G01_CNS-LLF5HT7Y0,s01,offmed_offstim,20260322_162107,2026-03-22 16:21:17.399765,NaN,0,reading,POSTREAD_FIX11_OFF,226,2026-03-22 16:23:14.041185,116.640736,0.030535,,,,,,keyboard,after digit#11,"{""note"":""after digit#11"",""pd_used"":0}",2,0.016667,60.000000,1
Sergio_G01_CNS-LLF5HT7Y0,s01,offmed_offstim,20260322_162107,2026-03-22 16:21:17.399765,NaN,0,reading,DIGIT_READ12_ON,112,2026-03-22 16:23:14.071729,116.671271,0.561268,,2,,,,keyboard,digit#12 shown,"{""value"":2,""note"":""digit#12 shown"",""pd_used"":1}",2,0.016667,60.000000,1
Sergio_G01_CNS-LLF5HT7Y0,s01,offmed_offstim,20260322_162107,2026-03-22 16:21:17.399765,NaN,0,reading,PROBE_COUNT_OK_12,71,2026-03-22 16:23:15.173550,117.232540,0.548985,95.927917,slot#12,NaN,,,keyboard,probe_digit#12,"{""value"":""slot#12"",""entered"":null,""rt"":95.9279174000003,""note"":""probe_digit#12""}",2,0.016667,60.000000,1
Sergio_G01_CNS-LLF5HT7Y0,s01,offmed_offstim,20260322_162107,2026-03-22 16:21:17.399765,NaN,0,reading,DIGIT_READ12_OFF,127,2026-03-22 16:23:15.181240,117.781524,0.000000,,2,,,,keyboard,digit#12 off,"{""value"":2,""note"":""digit#12 off"",""pd_used"":0}",2,0.016667,60.000000,1
Sergio_G01_CNS-LLF5HT7Y0,s01,offmed_offstim,20260322_162107,2026-03-22 16:21:17.399765,NaN,0,reading,POSTREAD_FIX12_ON,212,2026-03-22 16:23:15.182034,117.781524,1.668554,,,,,,keyboard,after digit#12,"{""note"":""after digit#12""}",2,0.016667,60.000000,1
Sergio_G01_CNS-LLF5HT7Y0,s01,offmed_offstim,20260322_162107,2026-03-22 16:21:17.399765,NaN,0,reading,POSTREAD_FIX12_OFF,227,2026-03-22 16:23:16.850739,119.450078,0.020052,,,,,,keyboard,after digit#12,"{""note"":""after digit#12"",""pd_used"":0}",2,0.016667,60.000000,1
Sergio_G01_CNS-LLF5HT7Y0,s01,offmed_offstim,20260322_162107,2026-03-22 16:21:17.399765,NaN,0,reading,DIGIT_READ13_ON,113,2026-03-22 16:23:16.870571,119.470130,0.572048,,4,,,,keyboard,digit#13 shown,"{""value"":4,""note"":""digit#13 shown"",""pd_used"":1}",2,0.016667,60.000000,1
Sergio_G01_CNS-LLF5HT7Y0,s01,offmed_offstim,20260322_162107,2026-03-22 16:21:17.399765,NaN,0,reading,PROBE_COUNT_OK_13,71,2026-03-22 16:23:18.095237,120.042178,0.662289,98.737556,slot#13,NaN,,,keyboard,probe_digit#13,"{""value"":""slot#13"",""entered"":null,""rt"":98.737555800000337,""note"":""probe_digit#13""}",2,0.016667,60.000000,1
Sergio_G01_CNS-LLF5HT7Y0,s01,offmed_offstim,20260322_162107,2026-03-22 16:21:17.399765,NaN,0,reading,DIGIT_READ13_OFF,128,2026-03-22 16:23:18.104248,120.704467,0.000000,,4,,,,keyboard,digit#13 off,"{""value"":4,""note"":""digit#13 off"",""pd_used"":0}",2,0.016667,60.000000,1
Sergio_G01_CNS-LLF5HT7Y0,s01,offmed_offstim,20260322_162107,2026-03-22 16:21:17.399765,NaN,0,reading,POSTREAD_FIX13_ON,213,2026-03-22 16:23:18.105028,120.704467,1.789138,,,,,,keyboard,after digit#13,"{""note"":""after digit#13""}",2,0.016667,60.000000,1
Sergio_G01_CNS-LLF5HT7Y0,s01,offmed_offstim,20260322_162107,2026-03-22 16:21:17.399765,NaN,0,reading,POSTREAD_FIX13_OFF,228,2026-03-22 16:23:19.893953,122.493604,0.013703,,,,,,keyboard,after digit#13,"{""note"":""after digit#13"",""pd_used"":0}",2,0.016667,60.000000,1
Sergio_G01_CNS-LLF5HT7Y0,s01,offmed_offstim,20260322_162107,2026-03-22 16:21:17.399765,NaN,0,reading,READING_END,24,2026-03-22 16:23:19.907564,122.507307,0.013122,,,,,,keyboard,,{},2,0.016667,60.000000,1
Sergio_G01_CNS-LLF5HT7Y0,s01,offmed_offstim,20260322_162107,2026-03-22 16:21:17.399765,NaN,0,reading,START_PAGE_ON,4,2026-03-22 16:23:19.920112,122.520429,0.017207,,,,,,keyboard,,"{""pd_used"":0}",2,0.016667,60.000000,1
Sergio_G01_CNS-LLF5HT7Y0,s01,offmed_offstim,20260322_162107,2026-03-22 16:21:17.399765,NaN,0,reading,START_PAGE_ON,4,2026-03-22 16:23:19.920112,122.520429,1.377675,,,,,,keyboard,,"{""pd_used"":0}",2,0.016667,60.000000,1
Sergio_G01_CNS-LLF5HT7Y0,s01,offmed_offstim,20260322_162107,2026-03-22 16:21:17.399765,NaN,0,reading,START_PAGE_ON,4,2026-03-22 16:23:19.920112,122.520429,1.687615,,,,,,keyboard,,"{""pd_used"":0}",2,0.016667,60.000000,1
Sergio_G01_CNS-LLF5HT7Y0,s01,offmed_offstim,20260322_162107,2026-03-22 16:21:17.399765,NaN,1,reading,TRIAL_CHANGE,22,2026-03-22 16:23:21.608428,124.208044,0.001911,,,,,,keyboard,trial transition,"{""note"":""trial transition""}",2,0.016667,60.000000,1
Sergio_G01_CNS-LLF5HT7Y0,s01,offmed_offstim,20260322_162107,2026-03-22 16:21:17.399765,NaN,1,reading,TRIAL_START,20,2026-03-22 16:23:21.609792,124.209955,0.009789,,,,,,keyboard,,{},2,0.016667,60.000000,1
Sergio_G01_CNS-LLF5HT7Y0,s01,offmed_offstim,20260322_162107,2026-03-22 16:21:17.399765,NaN,1,fix1,FIX1_ON,30,2026-03-22 16:23:21.620358,124.219744,3.322509,,,,,,keyboard,,"{""pd_used"":0}",2,0.016667,60.000000,1
Sergio_G01_CNS-LLF5HT7Y0,s01,offmed_offstim,20260322_162107,2026-03-22 16:21:17.399765,NaN,1,fix1,FIX1_OFF,31,2026-03-22 16:23:24.942085,127.542253,0.011639,,,,,,keyboard,,"{""pd_used"":0}",2,0.016667,60.000000,1
Sergio_G01_CNS-LLF5HT7Y0,s01,offmed_offstim,20260322_162107,2026-03-22 16:21:17.399765,NaN,1,digit,DIGIT1_ON,141,2026-03-22 16:23:24.953835,127.553892,0.510747,,3,,,,keyboard,digit#1 shown,"{""value"":3,""note"":""digit#1 shown"",""pd_used"":1}",2,0.016667,60.000000,1
Sergio_G01_CNS-LLF5HT7Y0,s01,offmed_offstim,20260322_162107,2026-03-22 16:21:17.399765,NaN,1,digit,DIGIT1_OFF,146,2026-03-22 16:23:25.464483,128.064640,0.000000,,3,,,,keyboard,digit#1 off,"{""value"":3,""note"":""digit#1 off"",""pd_used"":0}",2,0.016667,60.000000,1
Sergio_G01_CNS-LLF5HT7Y0,s01,offmed_offstim,20260322_162107,2026-03-22 16:21:17.399765,NaN,1,digit,POSTDIG_FIX1_ON,151,2026-03-22 16:23:25.465723,128.064640,1.572205,,,,,,keyboard,after digit#1,"{""note"":""after digit#1""}",2,0.016667,60.000000,1
Sergio_G01_CNS-LLF5HT7Y0,s01,offmed_offstim,20260322_162107,2026-03-22 16:21:17.399765,NaN,1,digit,POSTDIG_FIX1_OFF,156,2026-03-22 16:23:27.036692,129.636845,0.017102,,,,,,keyboard,after digit#1,"{""note"":""after digit#1"",""pd_used"":0}",2,0.016667,60.000000,1
Sergio_G01_CNS-LLF5HT7Y0,s01,offmed_offstim,20260322_162107,2026-03-22 16:21:17.399765,NaN,1,digit,DIGIT2_ON,142,2026-03-22 16:23:27.053851,129.653947,0.509791,,3,,,,keyboard,digit#2 shown,"{""value"":3,""note"":""digit#2 shown"",""pd_used"":1}",2,0.016667,60.000000,1
Sergio_G01_CNS-LLF5HT7Y0,s01,offmed_offstim,20260322_162107,2026-03-22 16:21:17.399765,NaN,1,digit,DIGIT2_OFF,147,2026-03-22 16:23:27.563579,130.163738,0.000000,,3,,,,keyboard,digit#2 off,"{""value"":3,""note"":""digit#2 off"",""pd_used"":0}",2,0.016667,60.000000,1
Sergio_G01_CNS-LLF5HT7Y0,s01,offmed_offstim,20260322_162107,2026-03-22 16:21:17.399765,NaN,1,digit,POSTDIG_FIX2_ON,152,2026-03-22 16:23:27.564354,130.163738,1.559797,,,,,,keyboard,after digit#2,"{""note"":""after digit#2""}",2,0.016667,60.000000,1
Sergio_G01_CNS-LLF5HT7Y0,s01,offmed_offstim,20260322_162107,2026-03-22 16:21:17.399765,NaN,1,digit,POSTDIG_FIX2_OFF,157,2026-03-22 16:23:29.123416,131.723534,0.013476,,,,,,keyboard,after digit#2,"{""note"":""after digit#2"",""pd_used"":0}",2,0.016667,60.000000,1
Sergio_G01_CNS-LLF5HT7Y0,s01,offmed_offstim,20260322_162107,2026-03-22 16:21:17.399765,NaN,1,digit,DIGIT3_ON,143,2026-03-22 16:23:29.136737,131.737010,0.509194,,6,,,,keyboard,digit#3 shown,"{""value"":6,""note"":""digit#3 shown"",""pd_used"":1}",2,0.016667,60.000000,1
Sergio_G01_CNS-LLF5HT7Y0,s01,offmed_offstim,20260322_162107,2026-03-22 16:21:17.399765,NaN,1,digit,DIGIT3_OFF,148,2026-03-22 16:23:29.646462,132.246205,0.000000,,6,,,,keyboard,digit#3 off,"{""value"":6,""note"":""digit#3 off"",""pd_used"":0}",2,0.016667,60.000000,1
Sergio_G01_CNS-LLF5HT7Y0,s01,offmed_offstim,20260322_162107,2026-03-22 16:21:17.399765,NaN,1,digit,POSTDIG_FIX3_ON,153,2026-03-22 16:23:29.648031,132.246205,2.006294,,,,,,keyboard,after digit#3,"{""note"":""after digit#3""}",2,0.016667,60.000000,1
Sergio_G01_CNS-LLF5HT7Y0,s01,offmed_offstim,20260322_162107,2026-03-22 16:21:17.399765,NaN,1,digit,POSTDIG_FIX3_OFF,158,2026-03-22 16:23:31.652447,134.252498,0.018478,,,,,,keyboard,after digit#3,"{""note"":""after digit#3"",""pd_used"":0}",2,0.016667,60.000000,1
Sergio_G01_CNS-LLF5HT7Y0,s01,offmed_offstim,20260322_162107,2026-03-22 16:21:17.399765,NaN,1,digit,DIGIT4_ON,144,2026-03-22 16:23:31.670771,134.270976,0.511716,,7,,,,keyboard,digit#4 shown,"{""value"":7,""note"":""digit#4 shown"",""pd_used"":1}",2,0.016667,60.000000,1
Sergio_G01_CNS-LLF5HT7Y0,s01,offmed_offstim,20260322_162107,2026-03-22 16:21:17.399765,NaN,1,digit,DIGIT4_OFF,149,2026-03-22 16:23:32.183207,134.782693,0.000000,,7,,,,keyboard,digit#4 off,"{""value"":7,""note"":""digit#4 off"",""pd_used"":0}",2,0.016667,60.000000,1
Sergio_G01_CNS-LLF5HT7Y0,s01,offmed_offstim,20260322_162107,2026-03-22 16:21:17.399765,NaN,1,digit,POSTDIG_FIX4_ON,154,2026-03-22 16:23:32.184629,134.782693,1.613685,,,,,,keyboard,after digit#4,"{""note"":""after digit#4""}",2,0.016667,60.000000,1
Sergio_G01_CNS-LLF5HT7Y0,s01,offmed_offstim,20260322_162107,2026-03-22 16:21:17.399765,NaN,1,digit,POSTDIG_FIX4_OFF,159,2026-03-22 16:23:33.796943,136.396378,0.010380,,,,,,keyboard,after digit#4,"{""note"":""after digit#4"",""pd_used"":0}",2,0.016667,60.000000,1
Sergio_G01_CNS-LLF5HT7Y0,s01,offmed_offstim,20260322_162107,2026-03-22 16:21:17.399765,NaN,1,digit,DIGIT5_ON,145,2026-03-22 16:23:33.806706,136.406758,0.509250,,1,,,,keyboard,digit#5 shown,"{""value"":1,""note"":""digit#5 shown"",""pd_used"":1}",2,0.016667,60.000000,1
Sergio_G01_CNS-LLF5HT7Y0,s01,offmed_offstim,20260322_162107,2026-03-22 16:21:17.399765,NaN,1,digit,DIGIT5_OFF,150,2026-03-22 16:23:34.315857,136.916007,0.000000,,1,,,,keyboard,digit#5 off,"{""value"":1,""note"":""digit#5 off"",""pd_used"":0}",2,0.016667,60.000000,1
Sergio_G01_CNS-LLF5HT7Y0,s01,offmed_offstim,20260322_162107,2026-03-22 16:21:17.399765,NaN,1,digit,POSTDIG_FIX5_ON,155,2026-03-22 16:23:34.316703,136.916007,3.281167,,,,,,keyboard,after digit#5,"{""note"":""after digit#5""}",2,0.016667,60.000000,1
Sergio_G01_CNS-LLF5HT7Y0,s01,offmed_offstim,20260322_162107,2026-03-22 16:21:17.399765,NaN,1,digit,POSTDIG_FIX5_OFF,160,2026-03-22 16:23:37.597012,140.197175,0.010035,,,,,,keyboard,after digit#5,"{""note"":""after digit#5"",""pd_used"":0}",2,0.016667,60.000000,1
Sergio_G01_CNS-LLF5HT7Y0,s01,offmed_offstim,20260322_162107,2026-03-22 16:21:17.399765,NaN,1,distractor,DISTRACTOR_ON,50,2026-03-22 16:23:37.606954,140.207210,1.903843,,2+0=2,,,,keyboard,,"{""value"":""2+0=2"",""isCorrectTruth"":true,""trueSum"":2,""pd_used"":1}",2,0.016667,60.000000,1
Sergio_G01_CNS-LLF5HT7Y0,s01,offmed_offstim,20260322_162107,2026-03-22 16:21:17.399765,NaN,1,distractor,DISTRACTOR_ANS,51,2026-03-22 16:23:40.024126,142.111052,0.000000,1.903843,2+0=2,F,0,,keyboard,key= (False),"{""value"":""2+0=2"",""entered"":""F"",""rt"":1.9038425999997344,""correct"":0,""note"":""key= (False)"",""truth"":true,""trueSum"":2,""shownSum"":2,""a"":2,""b"":0}",2,0.016667,60.000000,1
Sergio_G01_CNS-LLF5HT7Y0,s01,offmed_offstim,20260322_162107,2026-03-22 16:21:17.399765,NaN,1,distractor,ANS_WRONG,200,2026-03-22 16:23:40.026332,142.111052,0.524876,,,,,,keyboard,,{},2,0.016667,60.000000,1
Sergio_G01_CNS-LLF5HT7Y0,s01,offmed_offstim,20260322_162107,2026-03-22 16:21:17.399765,NaN,1,distractor,DISTRACTOR_OFF,52,2026-03-22 16:23:40.035931,142.635928,0.000000,,,,,,keyboard,,"{""pd_used"":0}",2,0.016667,60.000000,1
Sergio_G01_CNS-LLF5HT7Y0,s01,offmed_offstim,20260322_162107,2026-03-22 16:21:17.399765,NaN,1,distractor,FIX2_ON,60,2026-03-22 16:23:40.037445,142.635928,3.153908,,,,,,keyboard,immediate after response,"{""note"":""immediate after response""}",2,0.016667,60.000000,1
Sergio_G01_CNS-LLF5HT7Y0,s01,offmed_offstim,20260322_162107,2026-03-22 16:21:17.399765,NaN,1,fix2,FIX2_OFF,61,2026-03-22 16:23:43.190023,145.789837,0.014400,,,,,,keyboard,,"{""pd_used"":0}",2,0.016667,60.000000,1
Sergio_G01_CNS-LLF5HT7Y0,s01,offmed_offstim,20260322_162107,2026-03-22 16:21:17.399765,NaN,1,probe,DIGIT_RECALL_LINE_1,161,2026-03-22 16:23:43.204652,145.804236,6.437221,,1,,,,keyboard,first recall question,"{""value"":1,""note"":""first recall question"",""pd_used"":1}",2,0.016667,60.000000,1
Sergio_G01_CNS-LLF5HT7Y0,s01,offmed_offstim,20260322_162107,2026-03-22 16:21:17.399765,NaN,1,probe,PROBE_DIGIT_OK_1,71,2026-03-22 16:23:50.152693,152.241457,0.520380,6.449926,slot#1,NaN,,,keyboard,probe_digit#1,"{""value"":""slot#1"",""entered"":null,""rt"":6.4499257000002217,""note"":""probe_digit#1""}",2,0.016667,60.000000,1
Sergio_G01_CNS-LLF5HT7Y0,s01,offmed_offstim,20260322_162107,2026-03-22 16:21:17.399765,NaN,1,probe,DIGIT1_OFF,146,2026-03-22 16:23:50.161641,152.761837,0.000000,,1,,,,keyboard,digit#1 off,"{""value"":1,""note"":""digit#1 off"",""pd_used"":0}",2,0.016667,60.000000,1
Sergio_G01_CNS-LLF5HT7Y0,s01,offmed_offstim,20260322_162107,2026-03-22 16:21:17.399765,NaN,1,probe,POSTDIG_FIX1_ON,151,2026-03-22 16:23:50.163064,152.761837,1.634609,,,,,,keyboard,after digit#1,"{""note"":""after digit#1""}",2,0.016667,60.000000,1
Sergio_G01_CNS-LLF5HT7Y0,s01,offmed_offstim,20260322_162107,2026-03-22 16:21:17.399765,NaN,1,probe,POSTDIG_FIX1_OFF,156,2026-03-22 16:23:51.796869,154.396445,0.024192,,,,,,keyboard,after digit#1,"{""note"":""after digit#1"",""pd_used"":0}",2,0.016667,60.000000,1
Sergio_G01_CNS-LLF5HT7Y0,s01,offmed_offstim,20260322_162107,2026-03-22 16:21:17.399765,NaN,1,probe,DIGIT_RECALL_LINE_2,162,2026-03-22 16:23:51.820502,154.420637,0.498957,,2,,,,keyboard,next recall question,"{""value"":2,""note"":""next recall question"",""pd_used"":1}",2,0.016667,60.000000,1
Sergio_G01_CNS-LLF5HT7Y0,s01,offmed_offstim,20260322_162107,2026-03-22 16:21:17.399765,NaN,1,probe,PROBE_DIGIT_OK_2,71,2026-03-22 16:23:52.811409,154.919595,0.501097,9.128063,slot#2,NaN,,,keyboard,probe_digit#2,"{""value"":""slot#2"",""entered"":null,""rt"":9.1280633999999736,""note"":""probe_digit#2""}",2,0.016667,60.000000,1
Sergio_G01_CNS-LLF5HT7Y0,s01,offmed_offstim,20260322_162107,2026-03-22 16:21:17.399765,NaN,1,probe,DIGIT2_OFF,147,2026-03-22 16:23:52.820405,155.420692,0.000000,,1,,,,keyboard,digit#2 off,"{""value"":1,""note"":""digit#2 off"",""pd_used"":0}",2,0.016667,60.000000,1
Sergio_G01_CNS-LLF5HT7Y0,s01,offmed_offstim,20260322_162107,2026-03-22 16:21:17.399765,NaN,1,probe,POSTDIG_FIX2_ON,152,2026-03-22 16:23:52.821090,155.420692,1.911826,,,,,,keyboard,after digit#2,"{""note"":""after digit#2""}",2,0.016667,60.000000,1
Sergio_G01_CNS-LLF5HT7Y0,s01,offmed_offstim,20260322_162107,2026-03-22 16:21:17.399765,NaN,1,probe,POSTDIG_FIX2_OFF,157,2026-03-22 16:23:54.733126,157.332518,0.021137,,,,,,keyboard,after digit#2,"{""note"":""after digit#2"",""pd_used"":0}",2,0.016667,60.000000,1
Sergio_G01_CNS-LLF5HT7Y0,s01,offmed_offstim,20260322_162107,2026-03-22 16:21:17.399765,NaN,1,probe,DIGIT_RECALL_LINE_3,163,2026-03-22 16:23:54.753364,157.353655,0.404805,,3,,,,keyboard,next recall question,"{""value"":3,""note"":""next recall question"",""pd_used"":1}",2,0.016667,60.000000,1
Sergio_G01_CNS-LLF5HT7Y0,s01,offmed_offstim,20260322_162107,2026-03-22 16:21:17.399765,NaN,1,probe,PROBE_DIGIT_OK_3,71,2026-03-22 16:23:55.710598,157.758460,0.561948,11.966928,slot#3,NaN,,,keyboard,probe_digit#3,"{""value"":""slot#3"",""entered"":null,""rt"":11.966928300000291,""note"":""probe_digit#3""}",2,0.016667,60.000000,1
Sergio_G01_CNS-LLF5HT7Y0,s01,offmed_offstim,20260322_162107,2026-03-22 16:21:17.399765,NaN,1,probe,DIGIT3_OFF,148,2026-03-22 16:23:55.720429,158.320407,0.000000,,1,,,,keyboard,digit#3 off,"{""value"":1,""note"":""digit#3 off"",""pd_used"":0}",2,0.016667,60.000000,1
Sergio_G01_CNS-LLF5HT7Y0,s01,offmed_offstim,20260322_162107,2026-03-22 16:21:17.399765,NaN,1,probe,POSTDIG_FIX3_ON,153,2026-03-22 16:23:55.721670,158.320407,1.554687,,,,,,keyboard,after digit#3,"{""note"":""after digit#3""}",2,0.016667,60.000000,1
Sergio_G01_CNS-LLF5HT7Y0,s01,offmed_offstim,20260322_162107,2026-03-22 16:21:17.399765,NaN,1,probe,POSTDIG_FIX3_OFF,158,2026-03-22 16:23:57.275585,159.875095,0.028701,,,,,,keyboard,after digit#3,"{""note"":""after digit#3"",""pd_used"":0}",2,0.016667,60.000000,1
Sergio_G01_CNS-LLF5HT7Y0,s01,offmed_offstim,20260322_162107,2026-03-22 16:21:17.399765,NaN,1,probe,DIGIT_RECALL_LINE_4,164,2026-03-22 16:23:57.303752,159.903795,0.619473,,4,,,,keyboard,next recall question,"{""value"":4,""note"":""next recall question"",""pd_used"":1}",2,0.016667,60.000000,1
Sergio_G01_CNS-LLF5HT7Y0,s01,offmed_offstim,20260322_162107,2026-03-22 16:21:17.399765,NaN,1,probe,PROBE_DIGIT_OK_4,71,2026-03-22 16:23:58.587157,160.523269,0.671913,14.731737,slot#4,NaN,,,keyboard,probe_digit#4,"{""value"":""slot#4"",""entered"":null,""rt"":14.731737399999929,""note"":""probe_digit#4""}",2,0.016667,60.000000,1
Sergio_G01_CNS-LLF5HT7Y0,s01,offmed_offstim,20260322_162107,2026-03-22 16:21:17.399765,NaN,1,probe,DIGIT4_OFF,149,2026-03-22 16:23:58.595259,161.195181,0.000000,,1,,,,keyboard,digit#4 off,"{""value"":1,""note"":""digit#4 off"",""pd_used"":0}",2,0.016667,60.000000,1
Sergio_G01_CNS-LLF5HT7Y0,s01,offmed_offstim,20260322_162107,2026-03-22 16:21:17.399765,NaN,1,probe,POSTDIG_FIX4_ON,154,2026-03-22 16:23:58.596513,161.195181,1.510988,,,,,,keyboard,after digit#4,"{""note"":""after digit#4""}",2,0.016667,60.000000,1
Sergio_G01_CNS-LLF5HT7Y0,s01,offmed_offstim,20260322_162107,2026-03-22 16:21:17.399765,NaN,1,probe,POSTDIG_FIX4_OFF,159,2026-03-22 16:24:00.106521,162.706169,0.031452,,,,,,keyboard,after digit#4,"{""note"":""after digit#4"",""pd_used"":0}",2,0.016667,60.000000,1
Sergio_G01_CNS-LLF5HT7Y0,s01,offmed_offstim,20260322_162107,2026-03-22 16:21:17.399765,NaN,1,probe,DIGIT_RECALL_LINE_5,165,2026-03-22 16:24:00.137416,162.737621,0.511635,,5,,,,keyboard,next recall question,"{""value"":5,""note"":""next recall question"",""pd_used"":1}",2,0.016667,60.000000,1
Sergio_G01_CNS-LLF5HT7Y0,s01,offmed_offstim,20260322_162107,2026-03-22 16:21:17.399765,NaN,1,probe,PROBE_DIGIT_OK_5,71,2026-03-22 16:24:01.160925,163.249256,0.520378,17.457725,slot#5,NaN,,,keyboard,probe_digit#5,"{""value"":""slot#5"",""entered"":null,""rt"":17.457725199999913,""note"":""probe_digit#5""}",2,0.016667,60.000000,1
Sergio_G01_CNS-LLF5HT7Y0,s01,offmed_offstim,20260322_162107,2026-03-22 16:21:17.399765,NaN,1,probe,DIGIT5_OFF,150,2026-03-22 16:24:01.169590,163.769635,0.000000,,1,,,,keyboard,digit#5 off,"{""value"":1,""note"":""digit#5 off"",""pd_used"":0}",2,0.016667,60.000000,1
Sergio_G01_CNS-LLF5HT7Y0,s01,offmed_offstim,20260322_162107,2026-03-22 16:21:17.399765,NaN,1,probe,POSTDIG_FIX5_ON,155,2026-03-22 16:24:01.170725,163.769635,3.365316,,,,,,keyboard,after digit#5,"{""note"":""after digit#5""}",2,0.016667,60.000000,1
Sergio_G01_CNS-LLF5HT7Y0,s01,offmed_offstim,20260322_162107,2026-03-22 16:21:17.399765,NaN,1,probe,POSTDIG_FIX5_OFF,160,2026-03-22 16:24:04.534829,167.134950,0.019149,,,,,,keyboard,after digit#5,"{""note"":""after digit#5"",""pd_used"":0}",2,0.016667,60.000000,1
Sergio_G01_CNS-LLF5HT7Y0,s01,offmed_offstim,20260322_162107,2026-03-22 16:21:17.399765,NaN,1,probe,PROBE_DONE,73,2026-03-22 16:24:04.553763,167.154099,0.000863,,,,,,keyboard,probe complete,"{""value"":"""",""note"":""probe complete""}",2,0.016667,60.000000,1
Sergio_G01_CNS-LLF5HT7Y0,s01,offmed_offstim,20260322_162107,2026-03-22 16:21:17.399765,NaN,1,probe,TRIAL_END,21,2026-03-22 16:24:04.554501,167.154962,0.000781,,,,,,keyboard,,{},2,0.016667,60.000000,1
Sergio_G01_CNS-LLF5HT7Y0,s01,offmed_offstim,20260322_162107,2026-03-22 16:21:17.399765,NaN,1,probe,BLOCK_END,11,2026-03-22 16:24:04.555255,167.155742,0.180532,,,,,,keyboard,,{},2,0.016667,60.000000,1
Sergio_G01_CNS-LLF5HT7Y0,s01,offmed_offstim,20260322_162107,2026-03-22 16:21:17.399765,NaN,1,probe,SESSION_END,3,2026-03-22 16:24:04.736531,167.336275,NaN,,,,,,keyboard,,{},2,0.016667,60.000000,1
