file_version,subject,condition,session,task_start_time,block,trial,phase,event_name,event_code,wall_clock,t_rel_sec,duration_to_next,rt,value_shown,entered_value,correct,key_name,device,note,json,screen_index,ifi,refresh_hz,pd_used
Sergio_G01_CNS-DDJXM3V64,s01,offmed_offstim,20260320_150415,2026-03-20 15:04:22.120101,NaN,NaN,,MIC_NOISEFLOOR,6,2026-03-20 15:04:25.447774,3.326667,4.165683,,,,,,keyboard,,{},2,NaN,NaN,1
Sergio_G01_CNS-DDJXM3V64,s01,offmed_offstim,20260320_150415,2026-03-20 15:04:22.120101,NaN,NaN,,MIC_REC_SPEECH,7,2026-03-20 15:04:29.613041,7.492351,6.636767,,,,,,keyboard,,{},2,NaN,NaN,1
Sergio_G01_CNS-DDJXM3V64,s01,offmed_offstim,20260320_150415,2026-03-20 15:04:22.120101,NaN,NaN,,SESSION_START,1,2026-03-20 15:04:44.507050,22.386622,0.001010,,,,,,keyboard,,{},2,0.016667,60.000000,1
Sergio_G01_CNS-DDJXM3V64,s01,offmed_offstim,20260320_150415,2026-03-20 15:04:22.120101,NaN,NaN,,BLOCK_START,10,2026-03-20 15:04:44.507798,22.387632,0.048347,,,,,,keyboard,,{},2,0.016667,60.000000,1
Sergio_G01_CNS-DDJXM3V64,s01,offmed_offstim,20260320_150415,2026-03-20 15:04:22.120101,NaN,0,reading,START_PAGE_ON,4,2026-03-20 15:04:44.556549,22.435979,0.017097,,,,,,keyboard,,"{""pd_used"":0}",2,0.016667,60.000000,1
Sergio_G01_CNS-DDJXM3V64,s01,offmed_offstim,20260320_150415,2026-03-20 15:04:22.120101,NaN,0,reading,START_PAGE_ON,4,2026-03-20 15:04:44.556549,22.435979,2.087518,,,,,,keyboard,,"{""pd_used"":0}",2,0.016667,60.000000,1
Sergio_G01_CNS-DDJXM3V64,s01,offmed_offstim,20260320_150415,2026-03-20 15:04:22.120101,NaN,0,reading,START_PAGE_ON,4,2026-03-20 15:04:44.556549,22.435979,2.404102,,,,,,keyboard,,"{""pd_used"":0}",2,0.016667,60.000000,1
Sergio_G01_CNS-DDJXM3V64,s01,offmed_offstim,20260320_150415,2026-03-20 15:04:22.120101,NaN,0,reading,READING_START,23,2026-03-20 15:04:46.960722,24.840081,0.012460,,,,,,keyboard,,{},2,0.016667,60.000000,1
Sergio_G01_CNS-DDJXM3V64,s01,offmed_offstim,20260320_150415,2026-03-20 15:04:22.120101,NaN,0,reading,DIGIT_READ1_ON,101,2026-03-20 15:04:46.973159,24.852540,0.884676,,6,,,,keyboard,digit#1 shown,"{""value"":6,""note"":""digit#1 shown"",""pd_used"":1}",2,0.016667,60.000000,1
Sergio_G01_CNS-DDJXM3V64,s01,offmed_offstim,20260320_150415,2026-03-20 15:04:22.120101,NaN,0,reading,PROBE_COUNT_OK_1,71,2026-03-20 15:05:11.454885,25.737216,23.628833,3.348606,slot#1,NaN,,,keyboard,probe_digit#1,"{""value"":""slot#1"",""entered"":null,""rt"":3.3486059000715613,""note"":""probe_digit#1""}",2,0.016667,60.000000,1
Sergio_G01_CNS-DDJXM3V64,s01,offmed_offstim,20260320_150415,2026-03-20 15:04:22.120101,NaN,0,reading,DIGIT_READ1_OFF,116,2026-03-20 15:05:11.487118,49.366049,0.000000,,6,,,,keyboard,digit#1 off,"{""value"":6,""note"":""digit#1 off"",""pd_used"":0}",2,0.016667,60.000000,1
Sergio_G01_CNS-DDJXM3V64,s01,offmed_offstim,20260320_150415,2026-03-20 15:04:22.120101,NaN,0,reading,POSTREAD_FIX1_ON,201,2026-03-20 15:05:11.490223,49.366049,1.581649,,,,,,keyboard,after digit#1,"{""note"":""after digit#1""}",2,0.016667,60.000000,1
Sergio_G01_CNS-DDJXM3V64,s01,offmed_offstim,20260320_150415,2026-03-20 15:04:22.120101,NaN,0,reading,POSTREAD_FIX1_OFF,216,2026-03-20 15:05:13.068225,50.947698,0.044302,,,,,,keyboard,after digit#1,"{""note"":""after digit#1"",""pd_used"":0}",2,0.016667,60.000000,1
Sergio_G01_CNS-DDJXM3V64,s01,offmed_offstim,20260320_150415,2026-03-20 15:04:22.120101,NaN,0,reading,DIGIT_READ2_ON,102,2026-03-20 15:05:13.112534,50.992000,0.492884,,0,,,,keyboard,digit#2 shown,"{""value"":0,""note"":""digit#2 shown"",""pd_used"":1}",2,0.016667,60.000000,1
Sergio_G01_CNS-DDJXM3V64,s01,offmed_offstim,20260320_150415,2026-03-20 15:04:22.120101,NaN,0,reading,PROBE_COUNT_OK_2,71,2026-03-20 15:05:15.494226,51.484884,1.899513,29.096274,slot#2,NaN,,,keyboard,probe_digit#2,"{""value"":""slot#2"",""entered"":null,""rt"":29.096273500006646,""note"":""probe_digit#2""}",2,0.016667,60.000000,1
Sergio_G01_CNS-DDJXM3V64,s01,offmed_offstim,20260320_150415,2026-03-20 15:04:22.120101,NaN,0,reading,DIGIT_READ2_OFF,117,2026-03-20 15:05:15.504983,53.384397,0.000000,,0,,,,keyboard,digit#2 off,"{""value"":0,""note"":""digit#2 off"",""pd_used"":0}",2,0.016667,60.000000,1
Sergio_G01_CNS-DDJXM3V64,s01,offmed_offstim,20260320_150415,2026-03-20 15:04:22.120101,NaN,0,reading,POSTREAD_FIX2_ON,202,2026-03-20 15:05:15.506405,53.384397,1.614749,,,,,,keyboard,after digit#2,"{""note"":""after digit#2""}",2,0.016667,60.000000,1
Sergio_G01_CNS-DDJXM3V64,s01,offmed_offstim,20260320_150415,2026-03-20 15:04:22.120101,NaN,0,reading,POSTREAD_FIX2_OFF,217,2026-03-20 15:05:17.120351,54.999145,0.034224,,,,,,keyboard,after digit#2,"{""note"":""after digit#2"",""pd_used"":0}",2,0.016667,60.000000,1
Sergio_G01_CNS-DDJXM3V64,s01,offmed_offstim,20260320_150415,2026-03-20 15:04:22.120101,NaN,0,reading,DIGIT_READ3_ON,103,2026-03-20 15:05:17.153950,55.033369,0.858131,,2,,,,keyboard,digit#3 shown,"{""value"":2,""note"":""digit#3 shown"",""pd_used"":1}",2,0.016667,60.000000,1
Sergio_G01_CNS-DDJXM3V64,s01,offmed_offstim,20260320_150415,2026-03-20 15:04:22.120101,NaN,0,reading,PROBE_COUNT_OK_3,71,2026-03-20 15:05:18.887946,55.891500,0.888168,33.502889,slot#3,NaN,,,keyboard,probe_digit#3,"{""value"":""slot#3"",""entered"":null,""rt"":33.502889300230891,""note"":""probe_digit#3""}",2,0.016667,60.000000,1
Sergio_G01_CNS-DDJXM3V64,s01,offmed_offstim,20260320_150415,2026-03-20 15:04:22.120101,NaN,0,reading,DIGIT_READ3_OFF,118,2026-03-20 15:05:18.900329,56.779668,0.000000,,2,,,,keyboard,digit#3 off,"{""value"":2,""note"":""digit#3 off"",""pd_used"":0}",2,0.016667,60.000000,1
Sergio_G01_CNS-DDJXM3V64,s01,offmed_offstim,20260320_150415,2026-03-20 15:04:22.120101,NaN,0,reading,POSTREAD_FIX3_ON,203,2026-03-20 15:05:18.901770,56.779668,1.824519,,,,,,keyboard,after digit#3,"{""note"":""after digit#3""}",2,0.016667,60.000000,1
Sergio_G01_CNS-DDJXM3V64,s01,offmed_offstim,20260320_150415,2026-03-20 15:04:22.120101,NaN,0,reading,POSTREAD_FIX3_OFF,218,2026-03-20 15:05:20.725039,58.604187,0.023072,,,,,,keyboard,after digit#3,"{""note"":""after digit#3"",""pd_used"":0}",2,0.016667,60.000000,1
Sergio_G01_CNS-DDJXM3V64,s01,offmed_offstim,20260320_150415,2026-03-20 15:04:22.120101,NaN,0,reading,DIGIT_READ4_ON,104,2026-03-20 15:05:20.747825,58.627259,0.724382,,3,,,,keyboard,digit#4 shown,"{""value"":3,""note"":""digit#4 shown"",""pd_used"":1}",2,0.016667,60.000000,1
Sergio_G01_CNS-DDJXM3V64,s01,offmed_offstim,20260320_150415,2026-03-20 15:04:22.120101,NaN,0,reading,PROBE_COUNT_OK_4,71,2026-03-20 15:05:22.949480,59.351641,1.488239,36.963030,slot#4,NaN,,,keyboard,probe_digit#4,"{""value"":""slot#4"",""entered"":null,""rt"":36.96303049987182,""note"":""probe_digit#4""}",2,0.016667,60.000000,1
Sergio_G01_CNS-DDJXM3V64,s01,offmed_offstim,20260320_150415,2026-03-20 15:04:22.120101,NaN,0,reading,DIGIT_READ4_OFF,119,2026-03-20 15:05:22.960649,60.839880,0.000000,,3,,,,keyboard,digit#4 off,"{""value"":3,""note"":""digit#4 off"",""pd_used"":0}",2,0.016667,60.000000,1
Sergio_G01_CNS-DDJXM3V64,s01,offmed_offstim,20260320_150415,2026-03-20 15:04:22.120101,NaN,0,reading,POSTREAD_FIX4_ON,204,2026-03-20 15:05:22.962229,60.839880,1.667713,,,,,,keyboard,after digit#4,"{""note"":""after digit#4""}",2,0.016667,60.000000,1
Sergio_G01_CNS-DDJXM3V64,s01,offmed_offstim,20260320_150415,2026-03-20 15:04:22.120101,NaN,0,reading,POSTREAD_FIX4_OFF,219,2026-03-20 15:05:24.628164,62.507593,0.020805,,,,,,keyboard,after digit#4,"{""note"":""after digit#4"",""pd_used"":0}",2,0.016667,60.000000,1
Sergio_G01_CNS-DDJXM3V64,s01,offmed_offstim,20260320_150415,2026-03-20 15:04:22.120101,NaN,0,reading,DIGIT_READ5_ON,105,2026-03-20 15:05:24.648765,62.528398,0.576390,,9,,,,keyboard,digit#5 shown,"{""value"":9,""note"":""digit#5 shown"",""pd_used"":1}",2,0.016667,60.000000,1
Sergio_G01_CNS-DDJXM3V64,s01,offmed_offstim,20260320_150415,2026-03-20 15:04:22.120101,NaN,0,reading,PROBE_COUNT_OK_5,71,2026-03-20 15:05:26.232233,63.104787,1.016889,40.716177,slot#5,NaN,,,keyboard,probe_digit#5,"{""value"":""slot#5"",""entered"":null,""rt"":40.716177099850029,""note"":""probe_digit#5""}",2,0.016667,60.000000,1
Sergio_G01_CNS-DDJXM3V64,s01,offmed_offstim,20260320_150415,2026-03-20 15:04:22.120101,NaN,0,reading,DIGIT_READ5_OFF,120,2026-03-20 15:05:26.242247,64.121676,0.000000,,9,,,,keyboard,digit#5 off,"{""value"":9,""note"":""digit#5 off"",""pd_used"":0}",2,0.016667,60.000000,1
Sergio_G01_CNS-DDJXM3V64,s01,offmed_offstim,20260320_150415,2026-03-20 15:04:22.120101,NaN,0,reading,POSTREAD_FIX5_ON,205,2026-03-20 15:05:26.243646,64.121676,1.687321,,,,,,keyboard,after digit#5,"{""note"":""after digit#5""}",2,0.016667,60.000000,1
Sergio_G01_CNS-DDJXM3V64,s01,offmed_offstim,20260320_150415,2026-03-20 15:04:22.120101,NaN,0,reading,POSTREAD_FIX5_OFF,220,2026-03-20 15:05:27.929565,65.808997,0.025797,,,,,,keyboard,after digit#5,"{""note"":""after digit#5"",""pd_used"":0}",2,0.016667,60.000000,1
Sergio_G01_CNS-DDJXM3V64,s01,offmed_offstim,20260320_150415,2026-03-20 15:04:22.120101,NaN,0,reading,DIGIT_READ6_ON,106,2026-03-20 15:05:27.955145,65.834794,1.771829,,7,,,,keyboard,digit#6 shown,"{""value"":7,""note"":""digit#6 shown"",""pd_used"":1}",2,0.016667,60.000000,1
Sergio_G01_CNS-DDJXM3V64,s01,offmed_offstim,20260320_150415,2026-03-20 15:04:22.120101,NaN,0,reading,PROBE_COUNT_OK_6,71,2026-03-20 15:05:30.928671,67.606623,1.220557,45.218012,slot#6,NaN,,,keyboard,probe_digit#6,"{""value"":""slot#6"",""entered"":null,""rt"":45.218012299854308,""note"":""probe_digit#6""}",2,0.016667,60.000000,1
Sergio_G01_CNS-DDJXM3V64,s01,offmed_offstim,20260320_150415,2026-03-20 15:04:22.120101,NaN,0,reading,DIGIT_READ6_OFF,121,2026-03-20 15:05:30.947792,68.827180,0.000000,,7,,,,keyboard,digit#6 off,"{""value"":7,""note"":""digit#6 off"",""pd_used"":0}",2,0.016667,60.000000,1
Sergio_G01_CNS-DDJXM3V64,s01,offmed_offstim,20260320_150415,2026-03-20 15:04:22.120101,NaN,0,reading,POSTREAD_FIX6_ON,206,2026-03-20 15:05:30.949240,68.827180,1.818832,,,,,,keyboard,after digit#6,"{""note"":""after digit#6""}",2,0.016667,60.000000,1
Sergio_G01_CNS-DDJXM3V64,s01,offmed_offstim,20260320_150415,2026-03-20 15:04:22.120101,NaN,0,reading,POSTREAD_FIX6_OFF,221,2026-03-20 15:05:32.766651,70.646012,0.030599,,,,,,keyboard,after digit#6,"{""note"":""after digit#6"",""pd_used"":0}",2,0.016667,60.000000,1
Sergio_G01_CNS-DDJXM3V64,s01,offmed_offstim,20260320_150415,2026-03-20 15:04:22.120101,NaN,0,reading,DIGIT_READ7_ON,107,2026-03-20 15:05:32.797008,70.676612,1.803063,,5,,,,keyboard,digit#7 shown,"{""value"":5,""note"":""digit#7 shown"",""pd_used"":1}",2,0.016667,60.000000,1
Sergio_G01_CNS-DDJXM3V64,s01,offmed_offstim,20260320_150415,2026-03-20 15:04:22.120101,NaN,0,reading,PROBE_COUNT_OK_7,71,2026-03-20 15:05:35.764782,72.479675,1.173257,50.091065,slot#7,NaN,,,keyboard,probe_digit#7,"{""value"":""slot#7"",""entered"":null,""rt"":50.091064800042659,""note"":""probe_digit#7""}",2,0.016667,60.000000,1
Sergio_G01_CNS-DDJXM3V64,s01,offmed_offstim,20260320_150415,2026-03-20 15:04:22.120101,NaN,0,reading,DIGIT_READ7_OFF,122,2026-03-20 15:05:35.773495,73.652932,0.000000,,5,,,,keyboard,digit#7 off,"{""value"":5,""note"":""digit#7 off"",""pd_used"":0}",2,0.016667,60.000000,1
Sergio_G01_CNS-DDJXM3V64,s01,offmed_offstim,20260320_150415,2026-03-20 15:04:22.120101,NaN,0,reading,POSTREAD_FIX7_ON,207,2026-03-20 15:05:35.774898,73.652932,1.549559,,,,,,keyboard,after digit#7,"{""note"":""after digit#7""}",2,0.016667,60.000000,1
Sergio_G01_CNS-DDJXM3V64,s01,offmed_offstim,20260320_150415,2026-03-20 15:04:22.120101,NaN,0,reading,POSTREAD_FIX7_OFF,222,2026-03-20 15:05:37.323112,75.202491,0.024419,,,,,,keyboard,after digit#7,"{""note"":""after digit#7"",""pd_used"":0}",2,0.016667,60.000000,1
Sergio_G01_CNS-DDJXM3V64,s01,offmed_offstim,20260320_150415,2026-03-20 15:04:22.120101,NaN,0,reading,DIGIT_READ8_ON,108,2026-03-20 15:05:37.347295,75.226910,0.992678,,5,,,,keyboard,digit#8 shown,"{""value"":5,""note"":""digit#8 shown"",""pd_used"":1}",2,0.016667,60.000000,1
Sergio_G01_CNS-DDJXM3V64,s01,offmed_offstim,20260320_150415,2026-03-20 15:04:22.120101,NaN,0,reading,PROBE_COUNT_OK_8,71,2026-03-20 15:05:39.468534,76.219587,1.138955,53.830977,slot#8,NaN,,,keyboard,probe_digit#8,"{""value"":""slot#8"",""entered"":null,""rt"":53.830977099947631,""note"":""probe_digit#8""}",2,0.016667,60.000000,1
Sergio_G01_CNS-DDJXM3V64,s01,offmed_offstim,20260320_150415,2026-03-20 15:04:22.120101,NaN,0,reading,DIGIT_READ8_OFF,123,2026-03-20 15:05:39.479146,77.358543,0.000000,,5,,,,keyboard,digit#8 off,"{""value"":5,""note"":""digit#8 off"",""pd_used"":0}",2,0.016667,60.000000,1
Sergio_G01_CNS-DDJXM3V64,s01,offmed_offstim,20260320_150415,2026-03-20 15:04:22.120101,NaN,0,reading,POSTREAD_FIX8_ON,208,2026-03-20 15:05:39.480711,77.358543,1.694791,,,,,,keyboard,after digit#8,"{""note"":""after digit#8""}",2,0.016667,60.000000,1
Sergio_G01_CNS-DDJXM3V64,s01,offmed_offstim,20260320_150415,2026-03-20 15:04:22.120101,NaN,0,reading,POSTREAD_FIX8_OFF,223,2026-03-20 15:05:41.176460,79.053334,0.028121,,,,,,keyboard,after digit#8,"{""note"":""after digit#8"",""pd_used"":0}",2,0.016667,60.000000,1
Sergio_G01_CNS-DDJXM3V64,s01,offmed_offstim,20260320_150415,2026-03-20 15:04:22.120101,NaN,0,reading,DIGIT_READ9_ON,109,2026-03-20 15:05:41.201832,79.081455,0.500573,,0,,,,keyboard,digit#9 shown,"{""value"":0,""note"":""digit#9 shown"",""pd_used"":1}",2,0.016667,60.000000,1
Sergio_G01_CNS-DDJXM3V64,s01,offmed_offstim,20260320_150415,2026-03-20 15:04:22.120101,NaN,0,reading,PROBE_COUNT_OK_9,71,2026-03-20 15:05:43.079719,79.582028,1.391407,57.193418,slot#9,NaN,,,keyboard,probe_digit#9,"{""value"":""slot#9"",""entered"":null,""rt"":57.193417800124735,""note"":""probe_digit#9""}",2,0.016667,60.000000,1
Sergio_G01_CNS-DDJXM3V64,s01,offmed_offstim,20260320_150415,2026-03-20 15:04:22.120101,NaN,0,reading,DIGIT_READ9_OFF,124,2026-03-20 15:05:43.094005,80.973435,0.000000,,0,,,,keyboard,digit#9 off,"{""value"":0,""note"":""digit#9 off"",""pd_used"":0}",2,0.016667,60.000000,1
Sergio_G01_CNS-DDJXM3V64,s01,offmed_offstim,20260320_150415,2026-03-20 15:04:22.120101,NaN,0,reading,POSTREAD_FIX9_ON,209,2026-03-20 15:05:43.095548,80.973435,1.726355,,,,,,keyboard,after digit#9,"{""note"":""after digit#9""}",2,0.016667,60.000000,1
Sergio_G01_CNS-DDJXM3V64,s01,offmed_offstim,20260320_150415,2026-03-20 15:04:22.120101,NaN,0,reading,POSTREAD_FIX9_OFF,224,2026-03-20 15:05:44.820627,82.699790,0.027161,,,,,,keyboard,after digit#9,"{""note"":""after digit#9"",""pd_used"":0}",2,0.016667,60.000000,1
Sergio_G01_CNS-DDJXM3V64,s01,offmed_offstim,20260320_150415,2026-03-20 15:04:22.120101,NaN,0,reading,DIGIT_READ10_ON,110,2026-03-20 15:05:44.847317,82.726951,0.625987,,5,,,,keyboard,digit#10 shown,"{""value"":5,""note"":""digit#10 shown"",""pd_used"":1}",2,0.016667,60.000000,1
Sergio_G01_CNS-DDJXM3V64,s01,offmed_offstim,20260320_150415,2026-03-20 15:04:22.120101,NaN,0,reading,PROBE_COUNT_OK_10,71,2026-03-20 15:05:46.557626,83.352938,1.099431,60.964328,slot#10,NaN,,,keyboard,probe_digit#10,"{""value"":""slot#10"",""entered"":null,""rt"":60.964327599853277,""note"":""probe_digit#10""}",2,0.016667,60.000000,1
Sergio_G01_CNS-DDJXM3V64,s01,offmed_offstim,20260320_150415,2026-03-20 15:04:22.120101,NaN,0,reading,DIGIT_READ10_OFF,125,2026-03-20 15:05:46.573010,84.452369,0.000000,,5,,,,keyboard,digit#10 off,"{""value"":5,""note"":""digit#10 off"",""pd_used"":0}",2,0.016667,60.000000,1
Sergio_G01_CNS-DDJXM3V64,s01,offmed_offstim,20260320_150415,2026-03-20 15:04:22.120101,NaN,0,reading,POSTREAD_FIX10_ON,210,2026-03-20 15:05:46.574517,84.452369,1.588998,,,,,,keyboard,after digit#10,"{""note"":""after digit#10""}",2,0.016667,60.000000,1
Sergio_G01_CNS-DDJXM3V64,s01,offmed_offstim,20260320_150415,2026-03-20 15:04:22.120101,NaN,0,reading,POSTREAD_FIX10_OFF,225,2026-03-20 15:05:48.161986,86.041367,0.026346,,,,,,keyboard,after digit#10,"{""note"":""after digit#10"",""pd_used"":0}",2,0.016667,60.000000,1
Sergio_G01_CNS-DDJXM3V64,s01,offmed_offstim,20260320_150415,2026-03-20 15:04:22.120101,NaN,0,reading,DIGIT_READ11_ON,111,2026-03-20 15:05:48.188166,86.067713,1.131532,,9,,,,keyboard,digit#11 shown,"{""value"":9,""note"":""digit#11 shown"",""pd_used"":1}",2,0.016667,60.000000,1
Sergio_G01_CNS-DDJXM3V64,s01,offmed_offstim,20260320_150415,2026-03-20 15:04:22.120101,NaN,0,reading,PROBE_COUNT_OK_11,71,2026-03-20 15:05:50.054071,87.199245,0.749158,64.810635,slot#11,NaN,,,keyboard,probe_digit#11,"{""value"":""slot#11"",""entered"":null,""rt"":64.810635100118816,""note"":""probe_digit#11""}",2,0.016667,60.000000,1
Sergio_G01_CNS-DDJXM3V64,s01,offmed_offstim,20260320_150415,2026-03-20 15:04:22.120101,NaN,0,reading,DIGIT_READ11_OFF,126,2026-03-20 15:05:50.068961,87.948404,0.000000,,9,,,,keyboard,digit#11 off,"{""value"":9,""note"":""digit#11 off"",""pd_used"":0}",2,0.016667,60.000000,1
Sergio_G01_CNS-DDJXM3V64,s01,offmed_offstim,20260320_150415,2026-03-20 15:04:22.120101,NaN,0,reading,POSTREAD_FIX11_ON,211,2026-03-20 15:05:50.071138,87.948404,1.550800,,,,,,keyboard,after digit#11,"{""note"":""after digit#11""}",2,0.016667,60.000000,1
Sergio_G01_CNS-DDJXM3V64,s01,offmed_offstim,20260320_150415,2026-03-20 15:04:22.120101,NaN,0,reading,POSTREAD_FIX11_OFF,226,2026-03-20 15:05:51.619828,89.499204,0.029632,,,,,,keyboard,after digit#11,"{""note"":""after digit#11"",""pd_used"":0}",2,0.016667,60.000000,1
Sergio_G01_CNS-DDJXM3V64,s01,offmed_offstim,20260320_150415,2026-03-20 15:04:22.120101,NaN,0,reading,DIGIT_READ12_ON,112,2026-03-20 15:05:51.649438,89.528835,0.776940,,0,,,,keyboard,digit#12 shown,"{""value"":0,""note"":""digit#12 shown"",""pd_used"":1}",2,0.016667,60.000000,1
Sergio_G01_CNS-DDJXM3V64,s01,offmed_offstim,20260320_150415,2026-03-20 15:04:22.120101,NaN,0,reading,PROBE_COUNT_OK_12,71,2026-03-20 15:05:53.618315,90.305776,1.206303,67.917165,slot#12,NaN,,,keyboard,probe_digit#12,"{""value"":""slot#12"",""entered"":null,""rt"":67.917165299877524,""note"":""probe_digit#12""}",2,0.016667,60.000000,1
Sergio_G01_CNS-DDJXM3V64,s01,offmed_offstim,20260320_150415,2026-03-20 15:04:22.120101,NaN,0,reading,DIGIT_READ12_OFF,127,2026-03-20 15:05:53.632662,91.512078,0.000000,,0,,,,keyboard,digit#12 off,"{""value"":0,""note"":""digit#12 off"",""pd_used"":0}",2,0.016667,60.000000,1
Sergio_G01_CNS-DDJXM3V64,s01,offmed_offstim,20260320_150415,2026-03-20 15:04:22.120101,NaN,0,reading,POSTREAD_FIX12_ON,212,2026-03-20 15:05:53.634177,91.512078,1.986384,,,,,,keyboard,after digit#12,"{""note"":""after digit#12""}",2,0.016667,60.000000,1
Sergio_G01_CNS-DDJXM3V64,s01,offmed_offstim,20260320_150415,2026-03-20 15:04:22.120101,NaN,0,reading,POSTREAD_FIX12_OFF,227,2026-03-20 15:05:55.619140,93.498462,0.027546,,,,,,keyboard,after digit#12,"{""note"":""after digit#12"",""pd_used"":0}",2,0.016667,60.000000,1
Sergio_G01_CNS-DDJXM3V64,s01,offmed_offstim,20260320_150415,2026-03-20 15:04:22.120101,NaN,0,reading,DIGIT_READ13_ON,113,2026-03-20 15:05:55.646412,93.526008,0.557176,,0,,,,keyboard,digit#13 shown,"{""value"":0,""note"":""digit#13 shown"",""pd_used"":1}",2,0.016667,60.000000,1
Sergio_G01_CNS-DDJXM3V64,s01,offmed_offstim,20260320_150415,2026-03-20 15:04:22.120101,NaN,0,reading,PROBE_COUNT_OK_13,71,2026-03-20 15:05:57.466101,94.083185,1.273167,71.694574,slot#13,NaN,,,keyboard,probe_digit#13,"{""value"":""slot#13"",""entered"":null,""rt"":71.69457420008257,""note"":""probe_digit#13""}",2,0.016667,60.000000,1
Sergio_G01_CNS-DDJXM3V64,s01,offmed_offstim,20260320_150415,2026-03-20 15:04:22.120101,NaN,0,reading,DIGIT_READ13_OFF,128,2026-03-20 15:05:57.476950,95.356351,0.000000,,0,,,,keyboard,digit#13 off,"{""value"":0,""note"":""digit#13 off"",""pd_used"":0}",2,0.016667,60.000000,1
Sergio_G01_CNS-DDJXM3V64,s01,offmed_offstim,20260320_150415,2026-03-20 15:04:22.120101,NaN,0,reading,POSTREAD_FIX13_ON,213,2026-03-20 15:05:57.478375,95.356351,1.731643,,,,,,keyboard,after digit#13,"{""note"":""after digit#13""}",2,0.016667,60.000000,1
Sergio_G01_CNS-DDJXM3V64,s01,offmed_offstim,20260320_150415,2026-03-20 15:04:22.120101,NaN,0,reading,POSTREAD_FIX13_OFF,228,2026-03-20 15:05:59.208618,97.087994,0.025485,,,,,,keyboard,after digit#13,"{""note"":""after digit#13"",""pd_used"":0}",2,0.016667,60.000000,1
Sergio_G01_CNS-DDJXM3V64,s01,offmed_offstim,20260320_150415,2026-03-20 15:04:22.120101,NaN,0,reading,DIGIT_READ14_ON,114,2026-03-20 15:05:59.234218,97.113479,1.289458,,6,,,,keyboard,digit#14 shown,"{""value"":6,""note"":""digit#14 shown"",""pd_used"":1}",2,0.016667,60.000000,1
Sergio_G01_CNS-DDJXM3V64,s01,offmed_offstim,20260320_150415,2026-03-20 15:04:22.120101,NaN,0,reading,PROBE_COUNT_OK_14,71,2026-03-20 15:06:01.805119,98.402937,1.300202,76.014327,slot#14,NaN,,,keyboard,probe_digit#14,"{""value"":""slot#14"",""entered"":null,""rt"":76.014326500240713,""note"":""probe_digit#14""}",2,0.016667,60.000000,1
Sergio_G01_CNS-DDJXM3V64,s01,offmed_offstim,20260320_150415,2026-03-20 15:04:22.120101,NaN,0,reading,DIGIT_READ14_OFF,129,2026-03-20 15:06:01.823821,99.703139,0.000000,,6,,,,keyboard,digit#14 off,"{""value"":6,""note"":""digit#14 off"",""pd_used"":0}",2,0.016667,60.000000,1
Sergio_G01_CNS-DDJXM3V64,s01,offmed_offstim,20260320_150415,2026-03-20 15:04:22.120101,NaN,0,reading,POSTREAD_FIX14_ON,214,2026-03-20 15:06:01.826962,99.703139,1.810279,,,,,,keyboard,after digit#14,"{""note"":""after digit#14""}",2,0.016667,60.000000,1
Sergio_G01_CNS-DDJXM3V64,s01,offmed_offstim,20260320_150415,2026-03-20 15:04:22.120101,NaN,0,reading,POSTREAD_FIX14_OFF,229,2026-03-20 15:06:03.634043,101.513418,0.021590,,,,,,keyboard,after digit#14,"{""note"":""after digit#14"",""pd_used"":0}",2,0.016667,60.000000,1
Sergio_G01_CNS-DDJXM3V64,s01,offmed_offstim,20260320_150415,2026-03-20 15:04:22.120101,NaN,0,reading,DIGIT_READ15_ON,115,2026-03-20 15:06:03.655502,101.535008,1.679429,,5,,,,keyboard,digit#15 shown,"{""value"":5,""note"":""digit#15 shown"",""pd_used"":1}",2,0.016667,60.000000,1
Sergio_G01_CNS-DDJXM3V64,s01,offmed_offstim,20260320_150415,2026-03-20 15:04:22.120101,NaN,0,reading,PROBE_COUNT_OK_15,71,2026-03-20 15:06:07.166741,103.214437,1.844711,80.825827,slot#15,NaN,,,keyboard,probe_digit#15,"{""value"":""slot#15"",""entered"":null,""rt"":80.825826900079846,""note"":""probe_digit#15""}",2,0.016667,60.000000,1
Sergio_G01_CNS-DDJXM3V64,s01,offmed_offstim,20260320_150415,2026-03-20 15:04:22.120101,NaN,0,reading,DIGIT_READ15_OFF,130,2026-03-20 15:06:07.179696,105.059148,0.000000,,5,,,,keyboard,digit#15 off,"{""value"":5,""note"":""digit#15 off"",""pd_used"":0}",2,0.016667,60.000000,1
Sergio_G01_CNS-DDJXM3V64,s01,offmed_offstim,20260320_150415,2026-03-20 15:04:22.120101,NaN,0,reading,POSTREAD_FIX15_ON,215,2026-03-20 15:06:07.181120,105.059148,3.297849,,,,,,keyboard,after digit#15,"{""note"":""after digit#15""}",2,0.016667,60.000000,1
Sergio_G01_CNS-DDJXM3V64,s01,offmed_offstim,20260320_150415,2026-03-20 15:04:22.120101,NaN,0,reading,POSTREAD_FIX15_OFF,230,2026-03-20 15:06:10.477623,108.356997,0.009393,,,,,,keyboard,after digit#15,"{""note"":""after digit#15"",""pd_used"":0}",2,0.016667,60.000000,1
Sergio_G01_CNS-DDJXM3V64,s01,offmed_offstim,20260320_150415,2026-03-20 15:04:22.120101,NaN,0,reading,READING_END,24,2026-03-20 15:06:10.486736,108.366390,0.024911,,,,,,keyboard,,{},2,0.016667,60.000000,1
Sergio_G01_CNS-DDJXM3V64,s01,offmed_offstim,20260320_150415,2026-03-20 15:04:22.120101,NaN,0,reading,START_PAGE_ON,4,2026-03-20 15:06:10.512174,108.391301,0.019360,,,,,,keyboard,,"{""pd_used"":0}",2,0.016667,60.000000,1
Sergio_G01_CNS-DDJXM3V64,s01,offmed_offstim,20260320_150415,2026-03-20 15:04:22.120101,NaN,0,reading,START_PAGE_ON,4,2026-03-20 15:06:10.512174,108.391301,2.300764,,,,,,keyboard,,"{""pd_used"":0}",2,0.016667,60.000000,1
Sergio_G01_CNS-DDJXM3V64,s01,offmed_offstim,20260320_150415,2026-03-20 15:04:22.120101,NaN,0,reading,START_PAGE_ON,4,2026-03-20 15:06:10.512174,108.391301,2.612167,,,,,,keyboard,,"{""pd_used"":0}",2,0.016667,60.000000,1
Sergio_G01_CNS-DDJXM3V64,s01,offmed_offstim,20260320_150415,2026-03-20 15:04:22.120101,NaN,1,reading,TRIAL_CHANGE,22,2026-03-20 15:06:13.124287,111.003468,0.001709,,,,,,keyboard,trial transition,"{""note"":""trial transition""}",2,0.016667,60.000000,1
Sergio_G01_CNS-DDJXM3V64,s01,offmed_offstim,20260320_150415,2026-03-20 15:04:22.120101,NaN,1,reading,TRIAL_START,20,2026-03-20 15:06:13.125538,111.005177,0.012354,,,,,,keyboard,,{},2,0.016667,60.000000,1
Sergio_G01_CNS-DDJXM3V64,s01,offmed_offstim,20260320_150415,2026-03-20 15:04:22.120101,NaN,1,fix1,FIX1_ON,30,2026-03-20 15:06:13.137824,111.017531,3.134952,,,,,,keyboard,,"{""pd_used"":0}",2,0.016667,60.000000,1
Sergio_G01_CNS-DDJXM3V64,s01,offmed_offstim,20260320_150415,2026-03-20 15:04:22.120101,NaN,1,fix1,FIX1_OFF,31,2026-03-20 15:06:16.273119,114.152483,0.017664,,,,,,keyboard,,"{""pd_used"":0}",2,0.016667,60.000000,1
Sergio_G01_CNS-DDJXM3V64,s01,offmed_offstim,20260320_150415,2026-03-20 15:04:22.120101,NaN,1,digit,DIGIT1_ON,141,2026-03-20 15:06:16.290707,114.170147,0.510816,,1,,,,keyboard,digit#1 shown,"{""value"":1,""note"":""digit#1 shown"",""pd_used"":1}",2,0.016667,60.000000,1
Sergio_G01_CNS-DDJXM3V64,s01,offmed_offstim,20260320_150415,2026-03-20 15:04:22.120101,NaN,1,digit,DIGIT1_OFF,146,2026-03-20 15:06:16.801677,114.680963,0.000000,,1,,,,keyboard,digit#1 off,"{""value"":1,""note"":""digit#1 off"",""pd_used"":0}",2,0.016667,60.000000,1
Sergio_G01_CNS-DDJXM3V64,s01,offmed_offstim,20260320_150415,2026-03-20 15:04:22.120101,NaN,1,digit,POSTDIG_FIX1_ON,151,2026-03-20 15:06:16.802833,114.680963,1.551312,,,,,,keyboard,after digit#1,"{""note"":""after digit#1""}",2,0.016667,60.000000,1
Sergio_G01_CNS-DDJXM3V64,s01,offmed_offstim,20260320_150415,2026-03-20 15:04:22.120101,NaN,1,digit,POSTDIG_FIX1_OFF,156,2026-03-20 15:06:18.352843,116.232274,0.018720,,,,,,keyboard,after digit#1,"{""note"":""after digit#1"",""pd_used"":0}",2,0.016667,60.000000,1
Sergio_G01_CNS-DDJXM3V64,s01,offmed_offstim,20260320_150415,2026-03-20 15:04:22.120101,NaN,1,digit,DIGIT2_ON,142,2026-03-20 15:06:18.371571,116.250994,0.512803,,1,,,,keyboard,digit#2 shown,"{""value"":1,""note"":""digit#2 shown"",""pd_used"":1}",2,0.016667,60.000000,1
Sergio_G01_CNS-DDJXM3V64,s01,offmed_offstim,20260320_150415,2026-03-20 15:04:22.120101,NaN,1,digit,DIGIT2_OFF,147,2026-03-20 15:06:18.884876,116.763797,0.000000,,1,,,,keyboard,digit#2 off,"{""value"":1,""note"":""digit#2 off"",""pd_used"":0}",2,0.016667,60.000000,1
Sergio_G01_CNS-DDJXM3V64,s01,offmed_offstim,20260320_150415,2026-03-20 15:04:22.120101,NaN,1,digit,POSTDIG_FIX2_ON,152,2026-03-20 15:06:18.886057,116.763797,1.984152,,,,,,keyboard,after digit#2,"{""note"":""after digit#2""}",2,0.016667,60.000000,1
Sergio_G01_CNS-DDJXM3V64,s01,offmed_offstim,20260320_150415,2026-03-20 15:04:22.120101,NaN,1,digit,POSTDIG_FIX2_OFF,157,2026-03-20 15:06:20.868556,118.747949,0.015211,,,,,,keyboard,after digit#2,"{""note"":""after digit#2"",""pd_used"":0}",2,0.016667,60.000000,1
Sergio_G01_CNS-DDJXM3V64,s01,offmed_offstim,20260320_150415,2026-03-20 15:04:22.120101,NaN,1,digit,DIGIT3_ON,143,2026-03-20 15:06:20.883527,118.763160,0.509890,,9,,,,keyboard,digit#3 shown,"{""value"":9,""note"":""digit#3 shown"",""pd_used"":1}",2,0.016667,60.000000,1
Sergio_G01_CNS-DDJXM3V64,s01,offmed_offstim,20260320_150415,2026-03-20 15:04:22.120101,NaN,1,digit,DIGIT3_OFF,148,2026-03-20 15:06:21.394012,119.273050,0.000000,,9,,,,keyboard,digit#3 off,"{""value"":9,""note"":""digit#3 off"",""pd_used"":0}",2,0.016667,60.000000,1
Sergio_G01_CNS-DDJXM3V64,s01,offmed_offstim,20260320_150415,2026-03-20 15:04:22.120101,NaN,1,digit,POSTDIG_FIX3_ON,153,2026-03-20 15:06:21.395063,119.273050,1.891503,,,,,,keyboard,after digit#3,"{""note"":""after digit#3""}",2,0.016667,60.000000,1
Sergio_G01_CNS-DDJXM3V64,s01,offmed_offstim,20260320_150415,2026-03-20 15:04:22.120101,NaN,1,digit,POSTDIG_FIX3_OFF,158,2026-03-20 15:06:23.285195,121.164553,0.018533,,,,,,keyboard,after digit#3,"{""note"":""after digit#3"",""pd_used"":0}",2,0.016667,60.000000,1
Sergio_G01_CNS-DDJXM3V64,s01,offmed_offstim,20260320_150415,2026-03-20 15:04:22.120101,NaN,1,digit,DIGIT4_ON,144,2026-03-20 15:06:23.303475,121.183085,0.511512,,7,,,,keyboard,digit#4 shown,"{""value"":7,""note"":""digit#4 shown"",""pd_used"":1}",2,0.016667,60.000000,1
Sergio_G01_CNS-DDJXM3V64,s01,offmed_offstim,20260320_150415,2026-03-20 15:04:22.120101,NaN,1,digit,DIGIT4_OFF,149,2026-03-20 15:06:23.815245,121.694597,0.000000,,7,,,,keyboard,digit#4 off,"{""value"":7,""note"":""digit#4 off"",""pd_used"":0}",2,0.016667,60.000000,1
Sergio_G01_CNS-DDJXM3V64,s01,offmed_offstim,20260320_150415,2026-03-20 15:04:22.120101,NaN,1,digit,POSTDIG_FIX4_ON,154,2026-03-20 15:06:23.816383,121.694597,1.772581,,,,,,keyboard,after digit#4,"{""note"":""after digit#4""}",2,0.016667,60.000000,1
Sergio_G01_CNS-DDJXM3V64,s01,offmed_offstim,20260320_150415,2026-03-20 15:04:22.120101,NaN,1,digit,POSTDIG_FIX4_OFF,159,2026-03-20 15:06:25.587770,123.467178,0.019759,,,,,,keyboard,after digit#4,"{""note"":""after digit#4"",""pd_used"":0}",2,0.016667,60.000000,1
Sergio_G01_CNS-DDJXM3V64,s01,offmed_offstim,20260320_150415,2026-03-20 15:04:22.120101,NaN,1,digit,DIGIT5_ON,145,2026-03-20 15:06:25.607383,123.486937,0.513034,,4,,,,keyboard,digit#5 shown,"{""value"":4,""note"":""digit#5 shown"",""pd_used"":1}",2,0.016667,60.000000,1
Sergio_G01_CNS-DDJXM3V64,s01,offmed_offstim,20260320_150415,2026-03-20 15:04:22.120101,NaN,1,digit,DIGIT5_OFF,150,2026-03-20 15:06:26.120648,123.999971,0.000000,,4,,,,keyboard,digit#5 off,"{""value"":4,""note"":""digit#5 off"",""pd_used"":0}",2,0.016667,60.000000,1
Sergio_G01_CNS-DDJXM3V64,s01,offmed_offstim,20260320_150415,2026-03-20 15:04:22.120101,NaN,1,digit,POSTDIG_FIX5_ON,155,2026-03-20 15:06:26.122152,123.999971,3.436424,,,,,,keyboard,after digit#5,"{""note"":""after digit#5""}",2,0.016667,60.000000,1
Sergio_G01_CNS-DDJXM3V64,s01,offmed_offstim,20260320_150415,2026-03-20 15:04:22.120101,NaN,1,digit,POSTDIG_FIX5_OFF,160,2026-03-20 15:06:29.556958,127.436395,0.025756,,,,,,keyboard,after digit#5,"{""note"":""after digit#5"",""pd_used"":0}",2,0.016667,60.000000,1
Sergio_G01_CNS-DDJXM3V64,s01,offmed_offstim,20260320_150415,2026-03-20 15:04:22.120101,NaN,1,distractor,DISTRACTOR_ON,50,2026-03-20 15:06:29.582719,127.462150,1.959567,,2+3=5,,,,keyboard,,"{""value"":""2+3=5"",""isCorrectTruth"":true,""trueSum"":5,""pd_used"":1}",2,0.016667,60.000000,1
Sergio_G01_CNS-DDJXM3V64,s01,offmed_offstim,20260320_150415,2026-03-20 15:04:22.120101,NaN,1,distractor,DISTRACTOR_ANS,51,2026-03-20 15:06:32.175847,129.421718,0.000000,1.959567,2+3=5,F,0,,keyboard,key= (False),"{""value"":""2+3=5"",""entered"":""F"",""rt"":1.9595672995783389,""correct"":0,""note"":""key= (False)"",""truth"":true,""trueSum"":5,""shownSum"":5,""a"":2,""b"":3}",2,0.016667,60.000000,1
Sergio_G01_CNS-DDJXM3V64,s01,offmed_offstim,20260320_150415,2026-03-20 15:04:22.120101,NaN,1,distractor,ANS_WRONG,200,2026-03-20 15:06:32.177512,129.421718,0.644569,,,,,,keyboard,,{},2,0.016667,60.000000,1
Sergio_G01_CNS-DDJXM3V64,s01,offmed_offstim,20260320_150415,2026-03-20 15:04:22.120101,NaN,1,distractor,DISTRACTOR_OFF,52,2026-03-20 15:06:32.186971,130.066287,0.000000,,,,,,keyboard,,"{""pd_used"":0}",2,0.016667,60.000000,1
Sergio_G01_CNS-DDJXM3V64,s01,offmed_offstim,20260320_150415,2026-03-20 15:04:22.120101,NaN,1,distractor,FIX2_ON,60,2026-03-20 15:06:32.187733,130.066287,3.013506,,,,,,keyboard,immediate after response,"{""note"":""immediate after response""}",2,0.016667,60.000000,1
Sergio_G01_CNS-DDJXM3V64,s01,offmed_offstim,20260320_150415,2026-03-20 15:04:22.120101,NaN,1,fix2,FIX2_OFF,61,2026-03-20 15:06:35.200932,133.079793,0.013875,,,,,,keyboard,,"{""pd_used"":0}",2,0.016667,60.000000,1
Sergio_G01_CNS-DDJXM3V64,s01,offmed_offstim,20260320_150415,2026-03-20 15:04:22.120101,NaN,1,probe,DIGIT_RECALL_LINE_1,161,2026-03-20 15:06:35.214071,133.093668,0.637285,,1,,,,keyboard,first recall question,"{""value"":1,""note"":""first recall question"",""pd_used"":1}",2,0.016667,60.000000,1
Sergio_G01_CNS-DDJXM3V64,s01,offmed_offstim,20260320_150415,2026-03-20 15:04:22.120101,NaN,1,probe,PROBE_DIGIT_OK_1,71,2026-03-20 15:06:36.533056,133.730953,0.690252,0.648930,slot#1,NaN,,,keyboard,probe_digit#1,"{""value"":""slot#1"",""entered"":null,""rt"":0.64893020037561655,""note"":""probe_digit#1""}",2,0.016667,60.000000,1
Sergio_G01_CNS-DDJXM3V64,s01,offmed_offstim,20260320_150415,2026-03-20 15:04:22.120101,NaN,1,probe,DIGIT1_OFF,146,2026-03-20 15:06:36.541689,134.421206,0.000000,,4,,,,keyboard,digit#1 off,"{""value"":4,""note"":""digit#1 off"",""pd_used"":0}",2,0.016667,60.000000,1
Sergio_G01_CNS-DDJXM3V64,s01,offmed_offstim,20260320_150415,2026-03-20 15:04:22.120101,NaN,1,probe,POSTDIG_FIX1_ON,151,2026-03-20 15:06:36.542659,134.421206,1.779133,,,,,,keyboard,after digit#1,"{""note"":""after digit#1""}",2,0.016667,60.000000,1
Sergio_G01_CNS-DDJXM3V64,s01,offmed_offstim,20260320_150415,2026-03-20 15:04:22.120101,NaN,1,probe,POSTDIG_FIX1_OFF,156,2026-03-20 15:06:38.321001,136.200339,0.032347,,,,,,keyboard,after digit#1,"{""note"":""after digit#1"",""pd_used"":0}",2,0.016667,60.000000,1
Sergio_G01_CNS-DDJXM3V64,s01,offmed_offstim,20260320_150415,2026-03-20 15:04:22.120101,NaN,1,probe,DIGIT_RECALL_LINE_2,162,2026-03-20 15:06:38.353130,136.232686,1.575858,,2,,,,keyboard,next recall question,"{""value"":2,""note"":""next recall question"",""pd_used"":1}",2,0.016667,60.000000,1
Sergio_G01_CNS-DDJXM3V64,s01,offmed_offstim,20260320_150415,2026-03-20 15:04:22.120101,NaN,1,probe,PROBE_DIGIT_OK_2,71,2026-03-20 15:06:40.645469,137.808544,0.725072,4.726521,slot#2,NaN,,,keyboard,probe_digit#2,"{""value"":""slot#2"",""entered"":null,""rt"":4.7265208000317216,""note"":""probe_digit#2""}",2,0.016667,60.000000,1
Sergio_G01_CNS-DDJXM3V64,s01,offmed_offstim,20260320_150415,2026-03-20 15:04:22.120101,NaN,1,probe,DIGIT2_OFF,147,2026-03-20 15:06:40.654027,138.533615,0.000000,,4,,,,keyboard,digit#2 off,"{""value"":4,""note"":""digit#2 off"",""pd_used"":0}",2,0.016667,60.000000,1
Sergio_G01_CNS-DDJXM3V64,s01,offmed_offstim,20260320_150415,2026-03-20 15:04:22.120101,NaN,1,probe,POSTDIG_FIX2_ON,152,2026-03-20 15:06:40.654905,138.533615,1.622759,,,,,,keyboard,after digit#2,"{""note"":""after digit#2""}",2,0.016667,60.000000,1
Sergio_G01_CNS-DDJXM3V64,s01,offmed_offstim,20260320_150415,2026-03-20 15:04:22.120101,NaN,1,probe,POSTDIG_FIX2_OFF,157,2026-03-20 15:06:42.277203,140.156374,0.032980,,,,,,keyboard,after digit#2,"{""note"":""after digit#2"",""pd_used"":0}",2,0.016667,60.000000,1
Sergio_G01_CNS-DDJXM3V64,s01,offmed_offstim,20260320_150415,2026-03-20 15:04:22.120101,NaN,1,probe,DIGIT_RECALL_LINE_3,163,2026-03-20 15:06:42.309832,140.189354,1.881992,,3,,,,keyboard,next recall question,"{""value"":3,""note"":""next recall question"",""pd_used"":1}",2,0.016667,60.000000,1
Sergio_G01_CNS-DDJXM3V64,s01,offmed_offstim,20260320_150415,2026-03-20 15:04:22.120101,NaN,1,probe,PROBE_DIGIT_OK_3,71,2026-03-20 15:06:44.871934,142.071346,0.688558,8.989323,slot#3,NaN,,,keyboard,probe_digit#3,"{""value"":""slot#3"",""entered"":null,""rt"":8.9893233999609947,""note"":""probe_digit#3""}",2,0.016667,60.000000,1
Sergio_G01_CNS-DDJXM3V64,s01,offmed_offstim,20260320_150415,2026-03-20 15:04:22.120101,NaN,1,probe,DIGIT3_OFF,148,2026-03-20 15:06:44.880271,142.759904,0.000000,,4,,,,keyboard,digit#3 off,"{""value"":4,""note"":""digit#3 off"",""pd_used"":0}",2,0.016667,60.000000,1
Sergio_G01_CNS-DDJXM3V64,s01,offmed_offstim,20260320_150415,2026-03-20 15:04:22.120101,NaN,1,probe,POSTDIG_FIX3_ON,153,2026-03-20 15:06:44.881135,142.759904,1.753896,,,,,,keyboard,after digit#3,"{""note"":""after digit#3""}",2,0.016667,60.000000,1
Sergio_G01_CNS-DDJXM3V64,s01,offmed_offstim,20260320_150415,2026-03-20 15:04:22.120101,NaN,1,probe,POSTDIG_FIX3_OFF,158,2026-03-20 15:06:46.635034,144.513800,0.020954,,,,,,keyboard,after digit#3,"{""note"":""after digit#3"",""pd_used"":0}",2,0.016667,60.000000,1
Sergio_G01_CNS-DDJXM3V64,s01,offmed_offstim,20260320_150415,2026-03-20 15:04:22.120101,NaN,1,probe,DIGIT_RECALL_LINE_4,164,2026-03-20 15:06:46.655175,144.534754,1.449943,,4,,,,keyboard,next recall question,"{""value"":4,""note"":""next recall question"",""pd_used"":1}",2,0.016667,60.000000,1
Sergio_G01_CNS-DDJXM3V64,s01,offmed_offstim,20260320_150415,2026-03-20 15:04:22.120101,NaN,1,probe,PROBE_DIGIT_OK_4,71,2026-03-20 15:06:48.867337,145.984698,0.770159,12.902674,slot#4,NaN,,,keyboard,probe_digit#4,"{""value"":""slot#4"",""entered"":null,""rt"":12.902674400247633,""note"":""probe_digit#4""}",2,0.016667,60.000000,1
Sergio_G01_CNS-DDJXM3V64,s01,offmed_offstim,20260320_150415,2026-03-20 15:04:22.120101,NaN,1,probe,DIGIT4_OFF,149,2026-03-20 15:06:48.875273,146.754857,0.000000,,4,,,,keyboard,digit#4 off,"{""value"":4,""note"":""digit#4 off"",""pd_used"":0}",2,0.016667,60.000000,1
Sergio_G01_CNS-DDJXM3V64,s01,offmed_offstim,20260320_150415,2026-03-20 15:04:22.120101,NaN,1,probe,POSTDIG_FIX4_ON,154,2026-03-20 15:06:48.876214,146.754857,1.559766,,,,,,keyboard,after digit#4,"{""note"":""after digit#4""}",2,0.016667,60.000000,1
Sergio_G01_CNS-DDJXM3V64,s01,offmed_offstim,20260320_150415,2026-03-20 15:04:22.120101,NaN,1,probe,POSTDIG_FIX4_OFF,159,2026-03-20 15:06:50.435318,148.314623,0.025576,,,,,,keyboard,after digit#4,"{""note"":""after digit#4"",""pd_used"":0}",2,0.016667,60.000000,1
Sergio_G01_CNS-DDJXM3V64,s01,offmed_offstim,20260320_150415,2026-03-20 15:04:22.120101,NaN,1,probe,DIGIT_RECALL_LINE_5,165,2026-03-20 15:06:50.460612,148.340199,0.988851,,5,,,,keyboard,next recall question,"{""value"":5,""note"":""next recall question"",""pd_used"":1}",2,0.016667,60.000000,1
Sergio_G01_CNS-DDJXM3V64,s01,offmed_offstim,20260320_150415,2026-03-20 15:04:22.120101,NaN,1,probe,PROBE_DIGIT_OK_5,71,2026-03-20 15:06:52.066902,149.329050,0.625872,16.247027,slot#5,NaN,,,keyboard,probe_digit#5,"{""value"":""slot#5"",""entered"":null,""rt"":16.24702710006386,""note"":""probe_digit#5""}",2,0.016667,60.000000,1
Sergio_G01_CNS-DDJXM3V64,s01,offmed_offstim,20260320_150415,2026-03-20 15:04:22.120101,NaN,1,probe,DIGIT5_OFF,150,2026-03-20 15:06:52.075372,149.954922,0.000000,,4,,,,keyboard,digit#5 off,"{""value"":4,""note"":""digit#5 off"",""pd_used"":0}",2,0.016667,60.000000,1
Sergio_G01_CNS-DDJXM3V64,s01,offmed_offstim,20260320_150415,2026-03-20 15:04:22.120101,NaN,1,probe,POSTDIG_FIX5_ON,155,2026-03-20 15:06:52.076651,149.954922,3.241204,,,,,,keyboard,after digit#5,"{""note"":""after digit#5""}",2,0.016667,60.000000,1
Sergio_G01_CNS-DDJXM3V64,s01,offmed_offstim,20260320_150415,2026-03-20 15:04:22.120101,NaN,1,probe,POSTDIG_FIX5_OFF,160,2026-03-20 15:06:55.317020,153.196126,0.008741,,,,,,keyboard,after digit#5,"{""note"":""after digit#5"",""pd_used"":0}",2,0.016667,60.000000,1
Sergio_G01_CNS-DDJXM3V64,s01,offmed_offstim,20260320_150415,2026-03-20 15:04:22.120101,NaN,1,probe,PROBE_DONE,73,2026-03-20 15:06:55.325204,153.204867,0.000965,,,,,,keyboard,probe complete,"{""value"":"""",""note"":""probe complete""}",2,0.016667,60.000000,1
Sergio_G01_CNS-DDJXM3V64,s01,offmed_offstim,20260320_150415,2026-03-20 15:04:22.120101,NaN,1,probe,TRIAL_END,21,2026-03-20 15:06:55.326006,153.205832,0.000758,,,,,,keyboard,,{},2,0.016667,60.000000,1
Sergio_G01_CNS-DDJXM3V64,s01,offmed_offstim,20260320_150415,2026-03-20 15:04:22.120101,NaN,1,probe,BLOCK_END,11,2026-03-20 15:06:55.326752,153.206590,0.253773,,,,,,keyboard,,{},2,0.016667,60.000000,1
Sergio_G01_CNS-DDJXM3V64,s01,offmed_offstim,20260320_150415,2026-03-20 15:04:22.120101,NaN,1,probe,SESSION_END,3,2026-03-20 15:06:55.581038,153.460363,NaN,,,,,,keyboard,,{},2,0.016667,60.000000,1
