file_version,subject,condition,session,task_start_time,block,trial,phase,event_name,event_code,wall_clock,t_rel_sec,duration_to_next,rt,value_shown,entered_value,correct,key_name,device,note,json,screen_index,ifi,refresh_hz,pd_used
Sergio_G01_CNS-LLF5HT7Y0,s01,offmed_offstim,20260322_162605,2026-03-22 16:26:12.800053,NaN,NaN,,MIC_NOISEFLOOR,6,2026-03-22 16:26:15.964365,3.164190,4.112665,,,,,,keyboard,,{},2,NaN,NaN,1
Sergio_G01_CNS-LLF5HT7Y0,s01,offmed_offstim,20260322_162605,2026-03-22 16:26:12.800053,NaN,NaN,,MIC_REC_SPEECH,7,2026-03-22 16:26:20.076887,7.276855,6.617208,,,,,,keyboard,,{},2,NaN,NaN,1
Sergio_G01_CNS-LLF5HT7Y0,s01,offmed_offstim,20260322_162605,2026-03-22 16:26:12.800053,NaN,NaN,,SESSION_START,1,2026-03-22 16:26:43.357737,30.557379,0.001234,,,,,,keyboard,,{},2,0.016667,60.000000,1
Sergio_G01_CNS-LLF5HT7Y0,s01,offmed_offstim,20260322_162605,2026-03-22 16:26:12.800053,NaN,NaN,,BLOCK_START,10,2026-03-22 16:26:43.358413,30.558612,0.009637,,,,,,keyboard,,{},2,0.016667,60.000000,1
Sergio_G01_CNS-LLF5HT7Y0,s01,offmed_offstim,20260322_162605,2026-03-22 16:26:12.800053,NaN,0,reading,START_PAGE_ON,4,2026-03-22 16:26:43.368364,30.568250,0.016401,,,,,,keyboard,,"{""pd_used"":0}",2,0.016667,60.000000,1
Sergio_G01_CNS-LLF5HT7Y0,s01,offmed_offstim,20260322_162605,2026-03-22 16:26:12.800053,NaN,0,reading,START_PAGE_ON,4,2026-03-22 16:26:43.368364,30.568250,1.877936,,,,,,keyboard,,"{""pd_used"":0}",2,0.016667,60.000000,1
Sergio_G01_CNS-LLF5HT7Y0,s01,offmed_offstim,20260322_162605,2026-03-22 16:26:12.800053,NaN,0,reading,START_PAGE_ON,4,2026-03-22 16:26:43.368364,30.568250,2.187987,,,,,,keyboard,,"{""pd_used"":0}",2,0.016667,60.000000,1
Sergio_G01_CNS-LLF5HT7Y0,s01,offmed_offstim,20260322_162605,2026-03-22 16:26:12.800053,NaN,0,reading,READING_START,23,2026-03-22 16:26:45.556788,32.756237,0.011474,,,,,,keyboard,,{},2,0.016667,60.000000,1
Sergio_G01_CNS-LLF5HT7Y0,s01,offmed_offstim,20260322_162605,2026-03-22 16:26:12.800053,NaN,0,reading,DIGIT_READ1_ON,101,2026-03-22 16:26:45.568506,32.767711,1.102407,,0,,,,keyboard,digit#1 shown,"{""value"":0,""note"":""digit#1 shown"",""pd_used"":1}",2,0.016667,60.000000,1
Sergio_G01_CNS-LLF5HT7Y0,s01,offmed_offstim,20260322_162605,2026-03-22 16:26:12.800053,NaN,0,reading,PROBE_COUNT_OK_1,71,2026-03-22 16:26:47.269909,33.870118,0.608521,3.310218,slot#1,NaN,,,keyboard,probe_digit#1,"{""value"":""slot#1"",""entered"":null,""rt"":3.3102180000000772,""note"":""probe_digit#1""}",2,0.016667,60.000000,1
Sergio_G01_CNS-LLF5HT7Y0,s01,offmed_offstim,20260322_162605,2026-03-22 16:26:12.800053,NaN,0,reading,DIGIT_READ1_OFF,116,2026-03-22 16:26:47.278762,34.478639,0.000000,,0,,,,keyboard,digit#1 off,"{""value"":0,""note"":""digit#1 off"",""pd_used"":0}",2,0.016667,60.000000,1
Sergio_G01_CNS-LLF5HT7Y0,s01,offmed_offstim,20260322_162605,2026-03-22 16:26:12.800053,NaN,0,reading,POSTREAD_FIX1_ON,201,2026-03-22 16:26:47.279745,34.478639,1.674585,,,,,,keyboard,after digit#1,"{""note"":""after digit#1""}",2,0.016667,60.000000,1
Sergio_G01_CNS-LLF5HT7Y0,s01,offmed_offstim,20260322_162605,2026-03-22 16:26:12.800053,NaN,0,reading,POSTREAD_FIX1_OFF,216,2026-03-22 16:26:48.953714,36.153223,0.031266,,,,,,keyboard,after digit#1,"{""note"":""after digit#1"",""pd_used"":0}",2,0.016667,60.000000,1
Sergio_G01_CNS-LLF5HT7Y0,s01,offmed_offstim,20260322_162605,2026-03-22 16:26:12.800053,NaN,0,reading,DIGIT_READ2_ON,102,2026-03-22 16:26:48.984770,36.184489,0.588959,,0,,,,keyboard,digit#2 shown,"{""value"":0,""note"":""digit#2 shown"",""pd_used"":1}",2,0.016667,60.000000,1
Sergio_G01_CNS-LLF5HT7Y0,s01,offmed_offstim,20260322_162605,2026-03-22 16:26:12.800053,NaN,0,reading,PROBE_COUNT_OK_2,71,2026-03-22 16:26:50.143880,36.773449,0.579065,6.213549,slot#2,NaN,,,keyboard,probe_digit#2,"{""value"":""slot#2"",""entered"":null,""rt"":6.2135490000000573,""note"":""probe_digit#2""}",2,0.016667,60.000000,1
Sergio_G01_CNS-LLF5HT7Y0,s01,offmed_offstim,20260322_162605,2026-03-22 16:26:12.800053,NaN,0,reading,DIGIT_READ2_OFF,117,2026-03-22 16:26:50.153026,37.352514,0.000000,,0,,,,keyboard,digit#2 off,"{""value"":0,""note"":""digit#2 off"",""pd_used"":0}",2,0.016667,60.000000,1
Sergio_G01_CNS-LLF5HT7Y0,s01,offmed_offstim,20260322_162605,2026-03-22 16:26:12.800053,NaN,0,reading,POSTREAD_FIX2_ON,202,2026-03-22 16:26:50.154564,37.352514,1.788545,,,,,,keyboard,after digit#2,"{""note"":""after digit#2""}",2,0.016667,60.000000,1
Sergio_G01_CNS-LLF5HT7Y0,s01,offmed_offstim,20260322_162605,2026-03-22 16:26:12.800053,NaN,0,reading,POSTREAD_FIX2_OFF,217,2026-03-22 16:26:51.941850,39.141059,0.026908,,,,,,keyboard,after digit#2,"{""note"":""after digit#2"",""pd_used"":0}",2,0.016667,60.000000,1
Sergio_G01_CNS-LLF5HT7Y0,s01,offmed_offstim,20260322_162605,2026-03-22 16:26:12.800053,NaN,0,reading,DIGIT_READ3_ON,103,2026-03-22 16:26:51.968494,39.167967,0.582757,,6,,,,keyboard,digit#3 shown,"{""value"":6,""note"":""digit#3 shown"",""pd_used"":1}",2,0.016667,60.000000,1
Sergio_G01_CNS-LLF5HT7Y0,s01,offmed_offstim,20260322_162605,2026-03-22 16:26:12.800053,NaN,0,reading,PROBE_COUNT_OK_3,71,2026-03-22 16:26:52.957218,39.750724,0.416059,9.190824,slot#3,NaN,,,keyboard,probe_digit#3,"{""value"":""slot#3"",""entered"":null,""rt"":9.1908241999999518,""note"":""probe_digit#3""}",2,0.016667,60.000000,1
Sergio_G01_CNS-LLF5HT7Y0,s01,offmed_offstim,20260322_162605,2026-03-22 16:26:12.800053,NaN,0,reading,DIGIT_READ3_OFF,118,2026-03-22 16:26:52.966701,40.166783,0.000000,,6,,,,keyboard,digit#3 off,"{""value"":6,""note"":""digit#3 off"",""pd_used"":0}",2,0.016667,60.000000,1
Sergio_G01_CNS-LLF5HT7Y0,s01,offmed_offstim,20260322_162605,2026-03-22 16:26:12.800053,NaN,0,reading,POSTREAD_FIX3_ON,203,2026-03-22 16:26:52.967370,40.166783,1.896375,,,,,,keyboard,after digit#3,"{""note"":""after digit#3""}",2,0.016667,60.000000,1
Sergio_G01_CNS-LLF5HT7Y0,s01,offmed_offstim,20260322_162605,2026-03-22 16:26:12.800053,NaN,0,reading,POSTREAD_FIX3_OFF,218,2026-03-22 16:26:54.863289,42.063158,0.021641,,,,,,keyboard,after digit#3,"{""note"":""after digit#3"",""pd_used"":0}",2,0.016667,60.000000,1
Sergio_G01_CNS-LLF5HT7Y0,s01,offmed_offstim,20260322_162605,2026-03-22 16:26:12.800053,NaN,0,reading,DIGIT_READ4_ON,104,2026-03-22 16:26:54.884901,42.084799,0.565099,,8,,,,keyboard,digit#4 shown,"{""value"":8,""note"":""digit#4 shown"",""pd_used"":1}",2,0.016667,60.000000,1
Sergio_G01_CNS-LLF5HT7Y0,s01,offmed_offstim,20260322_162605,2026-03-22 16:26:12.800053,NaN,0,reading,PROBE_COUNT_OK_4,71,2026-03-22 16:26:55.914912,42.649897,0.472390,12.089998,slot#4,NaN,,,keyboard,probe_digit#4,"{""value"":""slot#4"",""entered"":null,""rt"":12.089997500000209,""note"":""probe_digit#4""}",2,0.016667,60.000000,1
Sergio_G01_CNS-LLF5HT7Y0,s01,offmed_offstim,20260322_162605,2026-03-22 16:26:12.800053,NaN,0,reading,DIGIT_READ4_OFF,119,2026-03-22 16:26:55.922207,43.122287,0.000000,,8,,,,keyboard,digit#4 off,"{""value"":8,""note"":""digit#4 off"",""pd_used"":0}",2,0.016667,60.000000,1
Sergio_G01_CNS-LLF5HT7Y0,s01,offmed_offstim,20260322_162605,2026-03-22 16:26:12.800053,NaN,0,reading,POSTREAD_FIX4_ON,204,2026-03-22 16:26:55.922858,43.122287,1.732134,,,,,,keyboard,after digit#4,"{""note"":""after digit#4""}",2,0.016667,60.000000,1
Sergio_G01_CNS-LLF5HT7Y0,s01,offmed_offstim,20260322_162605,2026-03-22 16:26:12.800053,NaN,0,reading,POSTREAD_FIX4_OFF,219,2026-03-22 16:26:57.655090,44.854421,0.033264,,,,,,keyboard,after digit#4,"{""note"":""after digit#4"",""pd_used"":0}",2,0.016667,60.000000,1
Sergio_G01_CNS-LLF5HT7Y0,s01,offmed_offstim,20260322_162605,2026-03-22 16:26:12.800053,NaN,0,reading,DIGIT_READ5_ON,105,2026-03-22 16:26:57.688325,44.887685,0.555162,,9,,,,keyboard,digit#5 shown,"{""value"":9,""note"":""digit#5 shown"",""pd_used"":1}",2,0.016667,60.000000,1
Sergio_G01_CNS-LLF5HT7Y0,s01,offmed_offstim,20260322_162605,2026-03-22 16:26:12.800053,NaN,0,reading,PROBE_COUNT_OK_5,71,2026-03-22 16:26:58.837405,45.442847,0.602420,14.882948,slot#5,NaN,,,keyboard,probe_digit#5,"{""value"":""slot#5"",""entered"":null,""rt"":14.882947500000228,""note"":""probe_digit#5""}",2,0.016667,60.000000,1
Sergio_G01_CNS-LLF5HT7Y0,s01,offmed_offstim,20260322_162605,2026-03-22 16:26:12.800053,NaN,0,reading,DIGIT_READ5_OFF,120,2026-03-22 16:26:58.845175,46.045267,0.000000,,9,,,,keyboard,digit#5 off,"{""value"":9,""note"":""digit#5 off"",""pd_used"":0}",2,0.016667,60.000000,1
Sergio_G01_CNS-LLF5HT7Y0,s01,offmed_offstim,20260322_162605,2026-03-22 16:26:12.800053,NaN,0,reading,POSTREAD_FIX5_ON,205,2026-03-22 16:26:58.845806,46.045267,1.592064,,,,,,keyboard,after digit#5,"{""note"":""after digit#5""}",2,0.016667,60.000000,1
Sergio_G01_CNS-LLF5HT7Y0,s01,offmed_offstim,20260322_162605,2026-03-22 16:26:12.800053,NaN,0,reading,POSTREAD_FIX5_OFF,220,2026-03-22 16:27:00.438109,47.637331,0.031152,,,,,,keyboard,after digit#5,"{""note"":""after digit#5"",""pd_used"":0}",2,0.016667,60.000000,1
Sergio_G01_CNS-LLF5HT7Y0,s01,offmed_offstim,20260322_162605,2026-03-22 16:26:12.800053,NaN,0,reading,DIGIT_READ6_ON,106,2026-03-22 16:27:00.469354,47.668483,0.625135,,2,,,,keyboard,digit#6 shown,"{""value"":2,""note"":""digit#6 shown"",""pd_used"":1}",2,0.016667,60.000000,1
Sergio_G01_CNS-LLF5HT7Y0,s01,offmed_offstim,20260322_162605,2026-03-22 16:26:12.800053,NaN,0,reading,PROBE_COUNT_OK_6,71,2026-03-22 16:27:01.649517,48.293618,0.563002,17.733718,slot#6,NaN,,,keyboard,probe_digit#6,"{""value"":""slot#6"",""entered"":null,""rt"":17.733718200000112,""note"":""probe_digit#6""}",2,0.016667,60.000000,1
Sergio_G01_CNS-LLF5HT7Y0,s01,offmed_offstim,20260322_162605,2026-03-22 16:26:12.800053,NaN,0,reading,DIGIT_READ6_OFF,121,2026-03-22 16:27:01.656861,48.856620,0.000000,,2,,,,keyboard,digit#6 off,"{""value"":2,""note"":""digit#6 off"",""pd_used"":0}",2,0.016667,60.000000,1
Sergio_G01_CNS-LLF5HT7Y0,s01,offmed_offstim,20260322_162605,2026-03-22 16:26:12.800053,NaN,0,reading,POSTREAD_FIX6_ON,206,2026-03-22 16:27:01.658061,48.856620,1.853855,,,,,,keyboard,after digit#6,"{""note"":""after digit#6""}",2,0.016667,60.000000,1
Sergio_G01_CNS-LLF5HT7Y0,s01,offmed_offstim,20260322_162605,2026-03-22 16:26:12.800053,NaN,0,reading,POSTREAD_FIX6_OFF,221,2026-03-22 16:27:03.510601,50.710475,0.023723,,,,,,keyboard,after digit#6,"{""note"":""after digit#6"",""pd_used"":0}",2,0.016667,60.000000,1
Sergio_G01_CNS-LLF5HT7Y0,s01,offmed_offstim,20260322_162605,2026-03-22 16:26:12.800053,NaN,0,reading,DIGIT_READ7_ON,107,2026-03-22 16:27:03.534524,50.734198,0.546739,,0,,,,keyboard,digit#7 shown,"{""value"":0,""note"":""digit#7 shown"",""pd_used"":1}",2,0.016667,60.000000,1
Sergio_G01_CNS-LLF5HT7Y0,s01,offmed_offstim,20260322_162605,2026-03-22 16:26:12.800053,NaN,0,reading,PROBE_COUNT_OK_7,71,2026-03-22 16:27:04.681802,51.280937,0.609293,20.721037,slot#7,NaN,,,keyboard,probe_digit#7,"{""value"":""slot#7"",""entered"":null,""rt"":20.721037299999807,""note"":""probe_digit#7""}",2,0.016667,60.000000,1
Sergio_G01_CNS-LLF5HT7Y0,s01,offmed_offstim,20260322_162605,2026-03-22 16:26:12.800053,NaN,0,reading,DIGIT_READ7_OFF,122,2026-03-22 16:27:04.690329,51.890230,0.000000,,0,,,,keyboard,digit#7 off,"{""value"":0,""note"":""digit#7 off"",""pd_used"":0}",2,0.016667,60.000000,1
Sergio_G01_CNS-LLF5HT7Y0,s01,offmed_offstim,20260322_162605,2026-03-22 16:26:12.800053,NaN,0,reading,POSTREAD_FIX7_ON,207,2026-03-22 16:27:04.691204,51.890230,1.537610,,,,,,keyboard,after digit#7,"{""note"":""after digit#7""}",2,0.016667,60.000000,1
Sergio_G01_CNS-LLF5HT7Y0,s01,offmed_offstim,20260322_162605,2026-03-22 16:26:12.800053,NaN,0,reading,POSTREAD_FIX7_OFF,222,2026-03-22 16:27:06.228516,53.427840,0.023494,,,,,,keyboard,after digit#7,"{""note"":""after digit#7"",""pd_used"":0}",2,0.016667,60.000000,1
Sergio_G01_CNS-LLF5HT7Y0,s01,offmed_offstim,20260322_162605,2026-03-22 16:26:12.800053,NaN,0,reading,DIGIT_READ8_ON,108,2026-03-22 16:27:06.252009,53.451335,0.611118,,8,,,,keyboard,digit#8 shown,"{""value"":8,""note"":""digit#8 shown"",""pd_used"":1}",2,0.016667,60.000000,1
Sergio_G01_CNS-LLF5HT7Y0,s01,offmed_offstim,20260322_162605,2026-03-22 16:26:12.800053,NaN,0,reading,PROBE_COUNT_OK_8,71,2026-03-22 16:27:07.335666,54.062453,0.480948,23.502553,slot#8,NaN,,,keyboard,probe_digit#8,"{""value"":""slot#8"",""entered"":null,""rt"":23.502553100000114,""note"":""probe_digit#8""}",2,0.016667,60.000000,1
Sergio_G01_CNS-LLF5HT7Y0,s01,offmed_offstim,20260322_162605,2026-03-22 16:26:12.800053,NaN,0,reading,DIGIT_READ8_OFF,123,2026-03-22 16:27:07.343333,54.543401,0.000000,,8,,,,keyboard,digit#8 off,"{""value"":8,""note"":""digit#8 off"",""pd_used"":0}",2,0.016667,60.000000,1
Sergio_G01_CNS-LLF5HT7Y0,s01,offmed_offstim,20260322_162605,2026-03-22 16:26:12.800053,NaN,0,reading,POSTREAD_FIX8_ON,208,2026-03-22 16:27:07.343978,54.543401,1.563693,,,,,,keyboard,after digit#8,"{""note"":""after digit#8""}",2,0.016667,60.000000,1
Sergio_G01_CNS-LLF5HT7Y0,s01,offmed_offstim,20260322_162605,2026-03-22 16:26:12.800053,NaN,0,reading,POSTREAD_FIX8_OFF,223,2026-03-22 16:27:08.907358,56.107095,0.027040,,,,,,keyboard,after digit#8,"{""note"":""after digit#8"",""pd_used"":0}",2,0.016667,60.000000,1
Sergio_G01_CNS-LLF5HT7Y0,s01,offmed_offstim,20260322_162605,2026-03-22 16:26:12.800053,NaN,0,reading,DIGIT_READ9_ON,109,2026-03-22 16:27:08.934173,56.134135,0.586904,,7,,,,keyboard,digit#9 shown,"{""value"":7,""note"":""digit#9 shown"",""pd_used"":1}",2,0.016667,60.000000,1
Sergio_G01_CNS-LLF5HT7Y0,s01,offmed_offstim,20260322_162605,2026-03-22 16:26:12.800053,NaN,0,reading,PROBE_COUNT_OK_9,71,2026-03-22 16:27:10.106244,56.721039,0.593687,26.161139,slot#9,NaN,,,keyboard,probe_digit#9,"{""value"":""slot#9"",""entered"":null,""rt"":26.161138800000117,""note"":""probe_digit#9""}",2,0.016667,60.000000,1
Sergio_G01_CNS-LLF5HT7Y0,s01,offmed_offstim,20260322_162605,2026-03-22 16:26:12.800053,NaN,0,reading,DIGIT_READ9_OFF,124,2026-03-22 16:27:10.115200,57.314726,0.000000,,7,,,,keyboard,digit#9 off,"{""value"":7,""note"":""digit#9 off"",""pd_used"":0}",2,0.016667,60.000000,1
Sergio_G01_CNS-LLF5HT7Y0,s01,offmed_offstim,20260322_162605,2026-03-22 16:26:12.800053,NaN,0,reading,POSTREAD_FIX9_ON,209,2026-03-22 16:27:10.116782,57.314726,1.978291,,,,,,keyboard,after digit#9,"{""note"":""after digit#9""}",2,0.016667,60.000000,1
Sergio_G01_CNS-LLF5HT7Y0,s01,offmed_offstim,20260322_162605,2026-03-22 16:26:12.800053,NaN,0,reading,POSTREAD_FIX9_OFF,224,2026-03-22 16:27:12.093707,59.293017,0.024876,,,,,,keyboard,after digit#9,"{""note"":""after digit#9"",""pd_used"":0}",2,0.016667,60.000000,1
Sergio_G01_CNS-LLF5HT7Y0,s01,offmed_offstim,20260322_162605,2026-03-22 16:26:12.800053,NaN,0,reading,DIGIT_READ10_ON,110,2026-03-22 16:27:12.118159,59.317892,0.572383,,1,,,,keyboard,digit#10 shown,"{""value"":1,""note"":""digit#10 shown"",""pd_used"":1}",2,0.016667,60.000000,1
Sergio_G01_CNS-LLF5HT7Y0,s01,offmed_offstim,20260322_162605,2026-03-22 16:26:12.800053,NaN,0,reading,PROBE_COUNT_OK_10,71,2026-03-22 16:27:13.263817,59.890276,0.582241,29.330376,slot#10,NaN,,,keyboard,probe_digit#10,"{""value"":""slot#10"",""entered"":null,""rt"":29.330375800000184,""note"":""probe_digit#10""}",2,0.016667,60.000000,1
Sergio_G01_CNS-LLF5HT7Y0,s01,offmed_offstim,20260322_162605,2026-03-22 16:26:12.800053,NaN,0,reading,DIGIT_READ10_OFF,125,2026-03-22 16:27:13.272770,60.472516,0.000000,,1,,,,keyboard,digit#10 off,"{""value"":1,""note"":""digit#10 off"",""pd_used"":0}",2,0.016667,60.000000,1
Sergio_G01_CNS-LLF5HT7Y0,s01,offmed_offstim,20260322_162605,2026-03-22 16:26:12.800053,NaN,0,reading,POSTREAD_FIX10_ON,210,2026-03-22 16:27:13.274027,60.472516,1.715461,,,,,,keyboard,after digit#10,"{""note"":""after digit#10""}",2,0.016667,60.000000,1
Sergio_G01_CNS-LLF5HT7Y0,s01,offmed_offstim,20260322_162605,2026-03-22 16:26:12.800053,NaN,0,reading,POSTREAD_FIX10_OFF,225,2026-03-22 16:27:14.988821,62.187978,0.030041,,,,,,keyboard,after digit#10,"{""note"":""after digit#10"",""pd_used"":0}",2,0.016667,60.000000,1
Sergio_G01_CNS-LLF5HT7Y0,s01,offmed_offstim,20260322_162605,2026-03-22 16:26:12.800053,NaN,0,reading,DIGIT_READ11_ON,111,2026-03-22 16:27:15.018745,62.218019,0.551683,,2,,,,keyboard,digit#11 shown,"{""value"":2,""note"":""digit#11 shown"",""pd_used"":1}",2,0.016667,60.000000,1
Sergio_G01_CNS-LLF5HT7Y0,s01,offmed_offstim,20260322_162605,2026-03-22 16:26:12.800053,NaN,0,reading,PROBE_COUNT_OK_11,71,2026-03-22 16:27:16.038743,62.769701,0.478070,32.209802,slot#11,NaN,,,keyboard,probe_digit#11,"{""value"":""slot#11"",""entered"":null,""rt"":32.20980150000014,""note"":""probe_digit#11""}",2,0.016667,60.000000,1
Sergio_G01_CNS-LLF5HT7Y0,s01,offmed_offstim,20260322_162605,2026-03-22 16:26:12.800053,NaN,0,reading,DIGIT_READ11_OFF,126,2026-03-22 16:27:16.048053,63.247772,0.000000,,2,,,,keyboard,digit#11 off,"{""value"":2,""note"":""digit#11 off"",""pd_used"":0}",2,0.016667,60.000000,1
Sergio_G01_CNS-LLF5HT7Y0,s01,offmed_offstim,20260322_162605,2026-03-22 16:26:12.800053,NaN,0,reading,POSTREAD_FIX11_ON,211,2026-03-22 16:27:16.049354,63.247772,1.925137,,,,,,keyboard,after digit#11,"{""note"":""after digit#11""}",2,0.016667,60.000000,1
Sergio_G01_CNS-LLF5HT7Y0,s01,offmed_offstim,20260322_162605,2026-03-22 16:26:12.800053,NaN,0,reading,POSTREAD_FIX11_OFF,226,2026-03-22 16:27:17.973295,65.172909,0.030251,,,,,,keyboard,after digit#11,"{""note"":""after digit#11"",""pd_used"":0}",2,0.016667,60.000000,1
Sergio_G01_CNS-LLF5HT7Y0,s01,offmed_offstim,20260322_162605,2026-03-22 16:26:12.800053,NaN,0,reading,DIGIT_READ12_ON,112,2026-03-22 16:27:18.003759,65.203160,0.615446,,3,,,,keyboard,digit#12 shown,"{""value"":3,""note"":""digit#12 shown"",""pd_used"":1}",2,0.016667,60.000000,1
Sergio_G01_CNS-LLF5HT7Y0,s01,offmed_offstim,20260322_162605,2026-03-22 16:26:12.800053,NaN,0,reading,PROBE_COUNT_OK_12,71,2026-03-22 16:27:19.065425,65.818606,0.455588,35.258706,slot#12,NaN,,,keyboard,probe_digit#12,"{""value"":""slot#12"",""entered"":null,""rt"":35.258706300000085,""note"":""probe_digit#12""}",2,0.016667,60.000000,1
Sergio_G01_CNS-LLF5HT7Y0,s01,offmed_offstim,20260322_162605,2026-03-22 16:26:12.800053,NaN,0,reading,DIGIT_READ12_OFF,127,2026-03-22 16:27:19.074427,66.274194,0.000000,,3,,,,keyboard,digit#12 off,"{""value"":3,""note"":""digit#12 off"",""pd_used"":0}",2,0.016667,60.000000,1
Sergio_G01_CNS-LLF5HT7Y0,s01,offmed_offstim,20260322_162605,2026-03-22 16:26:12.800053,NaN,0,reading,POSTREAD_FIX12_ON,212,2026-03-22 16:27:19.075556,66.274194,1.972895,,,,,,keyboard,after digit#12,"{""note"":""after digit#12""}",2,0.016667,60.000000,1
Sergio_G01_CNS-LLF5HT7Y0,s01,offmed_offstim,20260322_162605,2026-03-22 16:26:12.800053,NaN,0,reading,POSTREAD_FIX12_OFF,227,2026-03-22 16:27:21.047436,68.247089,0.019918,,,,,,keyboard,after digit#12,"{""note"":""after digit#12"",""pd_used"":0}",2,0.016667,60.000000,1
Sergio_G01_CNS-LLF5HT7Y0,s01,offmed_offstim,20260322_162605,2026-03-22 16:26:12.800053,NaN,0,reading,DIGIT_READ13_ON,113,2026-03-22 16:27:21.067085,68.267007,0.541890,,8,,,,keyboard,digit#13 shown,"{""value"":8,""note"":""digit#13 shown"",""pd_used"":1}",2,0.016667,60.000000,1
Sergio_G01_CNS-LLF5HT7Y0,s01,offmed_offstim,20260322_162605,2026-03-22 16:26:12.800053,NaN,0,reading,PROBE_COUNT_OK_13,71,2026-03-22 16:27:22.041457,68.808897,0.442862,38.248997,slot#13,NaN,,,keyboard,probe_digit#13,"{""value"":""slot#13"",""entered"":null,""rt"":38.248996799999986,""note"":""probe_digit#13""}",2,0.016667,60.000000,1
Sergio_G01_CNS-LLF5HT7Y0,s01,offmed_offstim,20260322_162605,2026-03-22 16:26:12.800053,NaN,0,reading,DIGIT_READ13_OFF,128,2026-03-22 16:27:22.052016,69.251759,0.000000,,8,,,,keyboard,digit#13 off,"{""value"":8,""note"":""digit#13 off"",""pd_used"":0}",2,0.016667,60.000000,1
Sergio_G01_CNS-LLF5HT7Y0,s01,offmed_offstim,20260322_162605,2026-03-22 16:26:12.800053,NaN,0,reading,POSTREAD_FIX13_ON,213,2026-03-22 16:27:22.053094,69.251759,1.909050,,,,,,keyboard,after digit#13,"{""note"":""after digit#13""}",2,0.016667,60.000000,1
Sergio_G01_CNS-LLF5HT7Y0,s01,offmed_offstim,20260322_162605,2026-03-22 16:26:12.800053,NaN,0,reading,POSTREAD_FIX13_OFF,228,2026-03-22 16:27:23.960929,71.160809,0.023410,,,,,,keyboard,after digit#13,"{""note"":""after digit#13"",""pd_used"":0}",2,0.016667,60.000000,1
Sergio_G01_CNS-LLF5HT7Y0,s01,offmed_offstim,20260322_162605,2026-03-22 16:26:12.800053,NaN,0,reading,DIGIT_READ14_ON,114,2026-03-22 16:27:23.984245,71.184219,0.536640,,6,,,,keyboard,digit#14 shown,"{""value"":6,""note"":""digit#14 shown"",""pd_used"":1}",2,0.016667,60.000000,1
Sergio_G01_CNS-LLF5HT7Y0,s01,offmed_offstim,20260322_162605,2026-03-22 16:26:12.800053,NaN,0,reading,PROBE_COUNT_OK_14,71,2026-03-22 16:27:24.949200,71.720859,0.438081,41.160960,slot#14,NaN,,,keyboard,probe_digit#14,"{""value"":""slot#14"",""entered"":null,""rt"":41.160959599999842,""note"":""probe_digit#14""}",2,0.016667,60.000000,1
Sergio_G01_CNS-LLF5HT7Y0,s01,offmed_offstim,20260322_162605,2026-03-22 16:26:12.800053,NaN,0,reading,DIGIT_READ14_OFF,129,2026-03-22 16:27:24.958994,72.158940,0.000000,,6,,,,keyboard,digit#14 off,"{""value"":6,""note"":""digit#14 off"",""pd_used"":0}",2,0.016667,60.000000,1
Sergio_G01_CNS-LLF5HT7Y0,s01,offmed_offstim,20260322_162605,2026-03-22 16:26:12.800053,NaN,0,reading,POSTREAD_FIX14_ON,214,2026-03-22 16:27:24.959814,72.158940,1.527948,,,,,,keyboard,after digit#14,"{""note"":""after digit#14""}",2,0.016667,60.000000,1
Sergio_G01_CNS-LLF5HT7Y0,s01,offmed_offstim,20260322_162605,2026-03-22 16:26:12.800053,NaN,0,reading,POSTREAD_FIX14_OFF,229,2026-03-22 16:27:26.487182,73.686888,0.030618,,,,,,keyboard,after digit#14,"{""note"":""after digit#14"",""pd_used"":0}",2,0.016667,60.000000,1
Sergio_G01_CNS-LLF5HT7Y0,s01,offmed_offstim,20260322_162605,2026-03-22 16:26:12.800053,NaN,0,reading,DIGIT_READ15_ON,115,2026-03-22 16:27:26.518042,73.717506,0.543238,,8,,,,keyboard,digit#15 shown,"{""value"":8,""note"":""digit#15 shown"",""pd_used"":1}",2,0.016667,60.000000,1
Sergio_G01_CNS-LLF5HT7Y0,s01,offmed_offstim,20260322_162605,2026-03-22 16:26:12.800053,NaN,0,reading,PROBE_COUNT_OK_15,71,2026-03-22 16:27:27.525662,74.260744,0.473436,43.700844,slot#15,NaN,,,keyboard,probe_digit#15,"{""value"":""slot#15"",""entered"":null,""rt"":43.700843999999961,""note"":""probe_digit#15""}",2,0.016667,60.000000,1
Sergio_G01_CNS-LLF5HT7Y0,s01,offmed_offstim,20260322_162605,2026-03-22 16:26:12.800053,NaN,0,reading,DIGIT_READ15_OFF,130,2026-03-22 16:27:27.534637,74.734179,0.000000,,8,,,,keyboard,digit#15 off,"{""value"":8,""note"":""digit#15 off"",""pd_used"":0}",2,0.016667,60.000000,1
Sergio_G01_CNS-LLF5HT7Y0,s01,offmed_offstim,20260322_162605,2026-03-22 16:26:12.800053,NaN,0,reading,POSTREAD_FIX15_ON,215,2026-03-22 16:27:27.535873,74.734179,3.069849,,,,,,keyboard,after digit#15,"{""note"":""after digit#15""}",2,0.016667,60.000000,1
Sergio_G01_CNS-LLF5HT7Y0,s01,offmed_offstim,20260322_162605,2026-03-22 16:26:12.800053,NaN,0,reading,POSTREAD_FIX15_OFF,230,2026-03-22 16:27:30.604177,77.804028,0.013431,,,,,,keyboard,after digit#15,"{""note"":""after digit#15"",""pd_used"":0}",2,0.016667,60.000000,1
Sergio_G01_CNS-LLF5HT7Y0,s01,offmed_offstim,20260322_162605,2026-03-22 16:26:12.800053,NaN,0,reading,READING_END,24,2026-03-22 16:27:30.617447,77.817459,0.016135,,,,,,keyboard,,{},2,0.016667,60.000000,1
Sergio_G01_CNS-LLF5HT7Y0,s01,offmed_offstim,20260322_162605,2026-03-22 16:26:12.800053,NaN,0,reading,START_PAGE_ON,4,2026-03-22 16:27:30.633472,77.833594,0.017304,,,,,,keyboard,,"{""pd_used"":0}",2,0.016667,60.000000,1
Sergio_G01_CNS-LLF5HT7Y0,s01,offmed_offstim,20260322_162605,2026-03-22 16:26:12.800053,NaN,0,reading,START_PAGE_ON,4,2026-03-22 16:27:30.633472,77.833594,1.759977,,,,,,keyboard,,"{""pd_used"":0}",2,0.016667,60.000000,1
Sergio_G01_CNS-LLF5HT7Y0,s01,offmed_offstim,20260322_162605,2026-03-22 16:26:12.800053,NaN,0,reading,START_PAGE_ON,4,2026-03-22 16:27:30.633472,77.833594,2.070305,,,,,,keyboard,,"{""pd_used"":0}",2,0.016667,60.000000,1
Sergio_G01_CNS-LLF5HT7Y0,s01,offmed_offstim,20260322_162605,2026-03-22 16:26:12.800053,NaN,1,reading,TRIAL_CHANGE,22,2026-03-22 16:27:32.704398,79.903899,0.001855,,,,,,keyboard,trial transition,"{""note"":""trial transition""}",2,0.016667,60.000000,1
Sergio_G01_CNS-LLF5HT7Y0,s01,offmed_offstim,20260322_162605,2026-03-22 16:26:12.800053,NaN,1,reading,TRIAL_START,20,2026-03-22 16:27:32.705965,79.905754,0.009834,,,,,,keyboard,,{},2,0.016667,60.000000,1
Sergio_G01_CNS-LLF5HT7Y0,s01,offmed_offstim,20260322_162605,2026-03-22 16:26:12.800053,NaN,1,fix1,FIX1_ON,30,2026-03-22 16:27:32.715623,79.915589,3.196445,,,,,,keyboard,,"{""pd_used"":0}",2,0.016667,60.000000,1
Sergio_G01_CNS-LLF5HT7Y0,s01,offmed_offstim,20260322_162605,2026-03-22 16:26:12.800053,NaN,1,fix1,FIX1_OFF,31,2026-03-22 16:27:35.912299,83.112034,0.009903,,,,,,keyboard,,"{""pd_used"":0}",2,0.016667,60.000000,1
Sergio_G01_CNS-LLF5HT7Y0,s01,offmed_offstim,20260322_162605,2026-03-22 16:26:12.800053,NaN,1,digit,DIGIT1_ON,141,2026-03-22 16:27:35.922821,83.121938,0.510785,,8,,,,keyboard,digit#1 shown,"{""value"":8,""note"":""digit#1 shown"",""pd_used"":1}",2,0.016667,60.000000,1
Sergio_G01_CNS-LLF5HT7Y0,s01,offmed_offstim,20260322_162605,2026-03-22 16:26:12.800053,NaN,1,digit,DIGIT1_OFF,146,2026-03-22 16:27:36.433362,83.632723,0.000000,,8,,,,keyboard,digit#1 off,"{""value"":8,""note"":""digit#1 off"",""pd_used"":0}",2,0.016667,60.000000,1
Sergio_G01_CNS-LLF5HT7Y0,s01,offmed_offstim,20260322_162605,2026-03-22 16:26:12.800053,NaN,1,digit,POSTDIG_FIX1_ON,151,2026-03-22 16:27:36.434145,83.632723,1.695960,,,,,,keyboard,after digit#1,"{""note"":""after digit#1""}",2,0.016667,60.000000,1
Sergio_G01_CNS-LLF5HT7Y0,s01,offmed_offstim,20260322_162605,2026-03-22 16:26:12.800053,NaN,1,digit,POSTDIG_FIX1_OFF,156,2026-03-22 16:27:38.129204,85.328683,0.009645,,,,,,keyboard,after digit#1,"{""note"":""after digit#1"",""pd_used"":0}",2,0.016667,60.000000,1
Sergio_G01_CNS-LLF5HT7Y0,s01,offmed_offstim,20260322_162605,2026-03-22 16:26:12.800053,NaN,1,digit,DIGIT2_ON,142,2026-03-22 16:27:38.138631,85.338328,0.509796,,5,,,,keyboard,digit#2 shown,"{""value"":5,""note"":""digit#2 shown"",""pd_used"":1}",2,0.016667,60.000000,1
Sergio_G01_CNS-LLF5HT7Y0,s01,offmed_offstim,20260322_162605,2026-03-22 16:26:12.800053,NaN,1,digit,DIGIT2_OFF,147,2026-03-22 16:27:38.648803,85.848124,0.000000,,5,,,,keyboard,digit#2 off,"{""value"":5,""note"":""digit#2 off"",""pd_used"":0}",2,0.016667,60.000000,1
Sergio_G01_CNS-LLF5HT7Y0,s01,offmed_offstim,20260322_162605,2026-03-22 16:26:12.800053,NaN,1,digit,POSTDIG_FIX2_ON,152,2026-03-22 16:27:38.650498,85.848124,1.643561,,,,,,keyboard,after digit#2,"{""note"":""after digit#2""}",2,0.016667,60.000000,1
Sergio_G01_CNS-LLF5HT7Y0,s01,offmed_offstim,20260322_162605,2026-03-22 16:26:12.800053,NaN,1,digit,POSTDIG_FIX2_OFF,157,2026-03-22 16:27:40.292409,87.491686,0.010287,,,,,,keyboard,after digit#2,"{""note"":""after digit#2"",""pd_used"":0}",2,0.016667,60.000000,1
Sergio_G01_CNS-LLF5HT7Y0,s01,offmed_offstim,20260322_162605,2026-03-22 16:26:12.800053,NaN,1,digit,DIGIT3_ON,143,2026-03-22 16:27:40.302773,87.501973,0.510330,,9,,,,keyboard,digit#3 shown,"{""value"":9,""note"":""digit#3 shown"",""pd_used"":1}",2,0.016667,60.000000,1
Sergio_G01_CNS-LLF5HT7Y0,s01,offmed_offstim,20260322_162605,2026-03-22 16:26:12.800053,NaN,1,digit,DIGIT3_OFF,148,2026-03-22 16:27:40.812425,88.012303,0.000000,,9,,,,keyboard,digit#3 off,"{""value"":9,""note"":""digit#3 off"",""pd_used"":0}",2,0.016667,60.000000,1
Sergio_G01_CNS-LLF5HT7Y0,s01,offmed_offstim,20260322_162605,2026-03-22 16:26:12.800053,NaN,1,digit,POSTDIG_FIX3_ON,153,2026-03-22 16:27:40.813217,88.012303,1.846797,,,,,,keyboard,after digit#3,"{""note"":""after digit#3""}",2,0.016667,60.000000,1
Sergio_G01_CNS-LLF5HT7Y0,s01,offmed_offstim,20260322_162605,2026-03-22 16:26:12.800053,NaN,1,digit,POSTDIG_FIX3_OFF,158,2026-03-22 16:27:42.659443,89.859101,0.009509,,,,,,keyboard,after digit#3,"{""note"":""after digit#3"",""pd_used"":0}",2,0.016667,60.000000,1
Sergio_G01_CNS-LLF5HT7Y0,s01,offmed_offstim,20260322_162605,2026-03-22 16:26:12.800053,NaN,1,digit,DIGIT4_ON,144,2026-03-22 16:27:42.668685,89.868610,0.509454,,1,,,,keyboard,digit#4 shown,"{""value"":1,""note"":""digit#4 shown"",""pd_used"":1}",2,0.016667,60.000000,1
Sergio_G01_CNS-LLF5HT7Y0,s01,offmed_offstim,20260322_162605,2026-03-22 16:26:12.800053,NaN,1,digit,DIGIT4_OFF,149,2026-03-22 16:27:43.178186,90.378064,0.000000,,1,,,,keyboard,digit#4 off,"{""value"":1,""note"":""digit#4 off"",""pd_used"":0}",2,0.016667,60.000000,1
Sergio_G01_CNS-LLF5HT7Y0,s01,offmed_offstim,20260322_162605,2026-03-22 16:26:12.800053,NaN,1,digit,POSTDIG_FIX4_ON,154,2026-03-22 16:27:43.178976,90.378064,1.658196,,,,,,keyboard,after digit#4,"{""note"":""after digit#4""}",2,0.016667,60.000000,1
Sergio_G01_CNS-LLF5HT7Y0,s01,offmed_offstim,20260322_162605,2026-03-22 16:26:12.800053,NaN,1,digit,POSTDIG_FIX4_OFF,159,2026-03-22 16:27:44.836655,92.036260,0.014680,,,,,,keyboard,after digit#4,"{""note"":""after digit#4"",""pd_used"":0}",2,0.016667,60.000000,1
Sergio_G01_CNS-LLF5HT7Y0,s01,offmed_offstim,20260322_162605,2026-03-22 16:26:12.800053,NaN,1,digit,DIGIT5_ON,145,2026-03-22 16:27:44.851674,92.050940,0.510529,,5,,,,keyboard,digit#5 shown,"{""value"":5,""note"":""digit#5 shown"",""pd_used"":1}",2,0.016667,60.000000,1
Sergio_G01_CNS-LLF5HT7Y0,s01,offmed_offstim,20260322_162605,2026-03-22 16:26:12.800053,NaN,1,digit,DIGIT5_OFF,150,2026-03-22 16:27:45.362098,92.561469,0.000000,,5,,,,keyboard,digit#5 off,"{""value"":5,""note"":""digit#5 off"",""pd_used"":0}",2,0.016667,60.000000,1
Sergio_G01_CNS-LLF5HT7Y0,s01,offmed_offstim,20260322_162605,2026-03-22 16:26:12.800053,NaN,1,digit,POSTDIG_FIX5_ON,155,2026-03-22 16:27:45.363704,92.561469,3.079211,,,,,,keyboard,after digit#5,"{""note"":""after digit#5""}",2,0.016667,60.000000,1
Sergio_G01_CNS-LLF5HT7Y0,s01,offmed_offstim,20260322_162605,2026-03-22 16:26:12.800053,NaN,1,digit,POSTDIG_FIX5_OFF,160,2026-03-22 16:27:48.440918,95.640680,0.009833,,,,,,keyboard,after digit#5,"{""note"":""after digit#5"",""pd_used"":0}",2,0.016667,60.000000,1
Sergio_G01_CNS-LLF5HT7Y0,s01,offmed_offstim,20260322_162605,2026-03-22 16:26:12.800053,NaN,1,distractor,DISTRACTOR_ON,50,2026-03-22 16:27:48.450538,95.650513,2.061134,,8+8=14,,,,keyboard,,"{""value"":""8+8=14"",""isCorrectTruth"":false,""trueSum"":16,""pd_used"":1}",2,0.016667,60.000000,1
Sergio_G01_CNS-LLF5HT7Y0,s01,offmed_offstim,20260322_162605,2026-03-22 16:26:12.800053,NaN,1,distractor,DISTRACTOR_ANS,51,2026-03-22 16:27:51.015137,97.711647,0.000000,2.061134,8+8=14,F,1,,keyboard,key= (False),"{""value"":""8+8=14"",""entered"":""F"",""rt"":2.06113409999989,""correct"":1,""note"":""key= (False)"",""truth"":false,""trueSum"":16,""shownSum"":14,""a"":8,""b"":8}",2,0.016667,60.000000,1
Sergio_G01_CNS-LLF5HT7Y0,s01,offmed_offstim,20260322_162605,2026-03-22 16:26:12.800053,NaN,1,distractor,ANS_CORRECT,100,2026-03-22 16:27:51.016782,97.711647,0.513461,,,,,,keyboard,,{},2,0.016667,60.000000,1
Sergio_G01_CNS-LLF5HT7Y0,s01,offmed_offstim,20260322_162605,2026-03-22 16:26:12.800053,NaN,1,distractor,DISTRACTOR_OFF,52,2026-03-22 16:27:51.025560,98.225108,0.000000,,,,,,keyboard,,"{""pd_used"":0}",2,0.016667,60.000000,1
Sergio_G01_CNS-LLF5HT7Y0,s01,offmed_offstim,20260322_162605,2026-03-22 16:26:12.800053,NaN,1,distractor,FIX2_ON,60,2026-03-22 16:27:51.026546,98.225108,3.054376,,,,,,keyboard,immediate after response,"{""note"":""immediate after response""}",2,0.016667,60.000000,1
Sergio_G01_CNS-LLF5HT7Y0,s01,offmed_offstim,20260322_162605,2026-03-22 16:26:12.800053,NaN,1,fix2,FIX2_OFF,61,2026-03-22 16:27:54.080149,101.279484,0.010426,,,,,,keyboard,,"{""pd_used"":0}",2,0.016667,60.000000,1
Sergio_G01_CNS-LLF5HT7Y0,s01,offmed_offstim,20260322_162605,2026-03-22 16:26:12.800053,NaN,1,probe,DIGIT_RECALL_LINE_1,161,2026-03-22 16:27:54.090097,101.289910,0.775422,,1,,,,keyboard,first recall question,"{""value"":1,""note"":""first recall question"",""pd_used"":1}",2,0.016667,60.000000,1
Sergio_G01_CNS-LLF5HT7Y0,s01,offmed_offstim,20260322_162605,2026-03-22 16:26:12.800053,NaN,1,probe,PROBE_DIGIT_OK_1,71,2026-03-22 16:27:55.422563,102.065332,0.565766,0.783686,slot#1,NaN,,,keyboard,probe_digit#1,"{""value"":""slot#1"",""entered"":null,""rt"":0.7836858000000575,""note"":""probe_digit#1""}",2,0.016667,60.000000,1
Sergio_G01_CNS-LLF5HT7Y0,s01,offmed_offstim,20260322_162605,2026-03-22 16:26:12.800053,NaN,1,probe,DIGIT1_OFF,146,2026-03-22 16:27:55.431127,102.631099,0.000000,,5,,,,keyboard,digit#1 off,"{""value"":5,""note"":""digit#1 off"",""pd_used"":0}",2,0.016667,60.000000,1
Sergio_G01_CNS-LLF5HT7Y0,s01,offmed_offstim,20260322_162605,2026-03-22 16:26:12.800053,NaN,1,probe,POSTDIG_FIX1_ON,151,2026-03-22 16:27:55.431917,102.631099,1.877535,,,,,,keyboard,after digit#1,"{""note"":""after digit#1""}",2,0.016667,60.000000,1
Sergio_G01_CNS-LLF5HT7Y0,s01,offmed_offstim,20260322_162605,2026-03-22 16:26:12.800053,NaN,1,probe,POSTDIG_FIX1_OFF,156,2026-03-22 16:27:57.308833,104.508634,0.025033,,,,,,keyboard,after digit#1,"{""note"":""after digit#1"",""pd_used"":0}",2,0.016667,60.000000,1
Sergio_G01_CNS-LLF5HT7Y0,s01,offmed_offstim,20260322_162605,2026-03-22 16:26:12.800053,NaN,1,probe,DIGIT_RECALL_LINE_2,162,2026-03-22 16:27:57.333766,104.533667,0.332837,,2,,,,keyboard,next recall question,"{""value"":2,""note"":""next recall question"",""pd_used"":1}",2,0.016667,60.000000,1
Sergio_G01_CNS-LLF5HT7Y0,s01,offmed_offstim,20260322_162605,2026-03-22 16:26:12.800053,NaN,1,probe,PROBE_DIGIT_OK_2,71,2026-03-22 16:27:58.179990,104.866504,0.523366,3.584858,slot#2,NaN,,,keyboard,probe_digit#2,"{""value"":""slot#2"",""entered"":null,""rt"":3.5848578000000089,""note"":""probe_digit#2""}",2,0.016667,60.000000,1
Sergio_G01_CNS-LLF5HT7Y0,s01,offmed_offstim,20260322_162605,2026-03-22 16:26:12.800053,NaN,1,probe,DIGIT2_OFF,147,2026-03-22 16:27:58.189865,105.389870,0.000000,,5,,,,keyboard,digit#2 off,"{""value"":5,""note"":""digit#2 off"",""pd_used"":0}",2,0.016667,60.000000,1
Sergio_G01_CNS-LLF5HT7Y0,s01,offmed_offstim,20260322_162605,2026-03-22 16:26:12.800053,NaN,1,probe,POSTDIG_FIX2_ON,152,2026-03-22 16:27:58.190616,105.389870,1.584977,,,,,,keyboard,after digit#2,"{""note"":""after digit#2""}",2,0.016667,60.000000,1
Sergio_G01_CNS-LLF5HT7Y0,s01,offmed_offstim,20260322_162605,2026-03-22 16:26:12.800053,NaN,1,probe,POSTDIG_FIX2_OFF,157,2026-03-22 16:27:59.775531,106.974847,0.025888,,,,,,keyboard,after digit#2,"{""note"":""after digit#2"",""pd_used"":0}",2,0.016667,60.000000,1
Sergio_G01_CNS-LLF5HT7Y0,s01,offmed_offstim,20260322_162605,2026-03-22 16:26:12.800053,NaN,1,probe,DIGIT_RECALL_LINE_3,163,2026-03-22 16:27:59.800745,107.000734,0.406065,,3,,,,keyboard,next recall question,"{""value"":3,""note"":""next recall question"",""pd_used"":1}",2,0.016667,60.000000,1
Sergio_G01_CNS-LLF5HT7Y0,s01,offmed_offstim,20260322_162605,2026-03-22 16:26:12.800053,NaN,1,probe,PROBE_DIGIT_OK_3,71,2026-03-22 16:28:00.703865,107.406799,0.506089,6.125153,slot#3,NaN,,,keyboard,probe_digit#3,"{""value"":""slot#3"",""entered"":null,""rt"":6.1251529999999548,""note"":""probe_digit#3""}",2,0.016667,60.000000,1
Sergio_G01_CNS-LLF5HT7Y0,s01,offmed_offstim,20260322_162605,2026-03-22 16:26:12.800053,NaN,1,probe,DIGIT3_OFF,148,2026-03-22 16:28:00.713476,107.912888,0.000000,,5,,,,keyboard,digit#3 off,"{""value"":5,""note"":""digit#3 off"",""pd_used"":0}",2,0.016667,60.000000,1
Sergio_G01_CNS-LLF5HT7Y0,s01,offmed_offstim,20260322_162605,2026-03-22 16:26:12.800053,NaN,1,probe,POSTDIG_FIX3_ON,153,2026-03-22 16:28:00.715177,107.912888,1.775609,,,,,,keyboard,after digit#3,"{""note"":""after digit#3""}",2,0.016667,60.000000,1
Sergio_G01_CNS-LLF5HT7Y0,s01,offmed_offstim,20260322_162605,2026-03-22 16:26:12.800053,NaN,1,probe,POSTDIG_FIX3_OFF,158,2026-03-22 16:28:02.488707,109.688498,0.028637,,,,,,keyboard,after digit#3,"{""note"":""after digit#3"",""pd_used"":0}",2,0.016667,60.000000,1
Sergio_G01_CNS-LLF5HT7Y0,s01,offmed_offstim,20260322_162605,2026-03-22 16:26:12.800053,NaN,1,probe,DIGIT_RECALL_LINE_4,164,2026-03-22 16:28:02.517276,109.717134,0.409580,,4,,,,keyboard,next recall question,"{""value"":4,""note"":""next recall question"",""pd_used"":1}",2,0.016667,60.000000,1
Sergio_G01_CNS-LLF5HT7Y0,s01,offmed_offstim,20260322_162605,2026-03-22 16:26:12.800053,NaN,1,probe,PROBE_DIGIT_OK_4,71,2026-03-22 16:28:03.506737,110.126714,0.589874,8.845068,slot#4,NaN,,,keyboard,probe_digit#4,"{""value"":""slot#4"",""entered"":null,""rt"":8.8450677000000724,""note"":""probe_digit#4""}",2,0.016667,60.000000,1
Sergio_G01_CNS-LLF5HT7Y0,s01,offmed_offstim,20260322_162605,2026-03-22 16:26:12.800053,NaN,1,probe,DIGIT4_OFF,149,2026-03-22 16:28:03.516885,110.716588,0.000000,,5,,,,keyboard,digit#4 off,"{""value"":5,""note"":""digit#4 off"",""pd_used"":0}",2,0.016667,60.000000,1
Sergio_G01_CNS-LLF5HT7Y0,s01,offmed_offstim,20260322_162605,2026-03-22 16:26:12.800053,NaN,1,probe,POSTDIG_FIX4_ON,154,2026-03-22 16:28:03.518131,110.716588,1.765603,,,,,,keyboard,after digit#4,"{""note"":""after digit#4""}",2,0.016667,60.000000,1
Sergio_G01_CNS-LLF5HT7Y0,s01,offmed_offstim,20260322_162605,2026-03-22 16:26:12.800053,NaN,1,probe,POSTDIG_FIX4_OFF,159,2026-03-22 16:28:05.282644,112.482190,0.035033,,,,,,keyboard,after digit#4,"{""note"":""after digit#4"",""pd_used"":0}",2,0.016667,60.000000,1
Sergio_G01_CNS-LLF5HT7Y0,s01,offmed_offstim,20260322_162605,2026-03-22 16:26:12.800053,NaN,1,probe,DIGIT_RECALL_LINE_5,165,2026-03-22 16:28:05.317353,112.517224,0.502146,,5,,,,keyboard,next recall question,"{""value"":5,""note"":""next recall question"",""pd_used"":1}",2,0.016667,60.000000,1
Sergio_G01_CNS-LLF5HT7Y0,s01,offmed_offstim,20260322_162605,2026-03-22 16:26:12.800053,NaN,1,probe,PROBE_DIGIT_OK_5,71,2026-03-22 16:28:06.266247,113.019370,0.455863,11.737723,slot#5,NaN,,,keyboard,probe_digit#5,"{""value"":""slot#5"",""entered"":null,""rt"":11.73772340000005,""note"":""probe_digit#5""}",2,0.016667,60.000000,1
Sergio_G01_CNS-LLF5HT7Y0,s01,offmed_offstim,20260322_162605,2026-03-22 16:26:12.800053,NaN,1,probe,DIGIT5_OFF,150,2026-03-22 16:28:06.275652,113.475232,0.000000,,5,,,,keyboard,digit#5 off,"{""value"":5,""note"":""digit#5 off"",""pd_used"":0}",2,0.016667,60.000000,1
Sergio_G01_CNS-LLF5HT7Y0,s01,offmed_offstim,20260322_162605,2026-03-22 16:26:12.800053,NaN,1,probe,POSTDIG_FIX5_ON,155,2026-03-22 16:28:06.277278,113.475232,3.065644,,,,,,keyboard,after digit#5,"{""note"":""after digit#5""}",2,0.016667,60.000000,1
Sergio_G01_CNS-LLF5HT7Y0,s01,offmed_offstim,20260322_162605,2026-03-22 16:26:12.800053,NaN,1,probe,POSTDIG_FIX5_OFF,160,2026-03-22 16:28:09.341000,116.540876,0.009804,,,,,,keyboard,after digit#5,"{""note"":""after digit#5"",""pd_used"":0}",2,0.016667,60.000000,1
Sergio_G01_CNS-LLF5HT7Y0,s01,offmed_offstim,20260322_162605,2026-03-22 16:26:12.800053,NaN,1,probe,PROBE_DONE,73,2026-03-22 16:28:09.350935,116.550680,0.001461,,,,,,keyboard,probe complete,"{""value"":"""",""note"":""probe complete""}",2,0.016667,60.000000,1
Sergio_G01_CNS-LLF5HT7Y0,s01,offmed_offstim,20260322_162605,2026-03-22 16:26:12.800053,NaN,1,probe,TRIAL_END,21,2026-03-22 16:28:09.352300,116.552140,0.001609,,,,,,keyboard,,{},2,0.016667,60.000000,1
Sergio_G01_CNS-LLF5HT7Y0,s01,offmed_offstim,20260322_162605,2026-03-22 16:26:12.800053,NaN,1,probe,BLOCK_END,11,2026-03-22 16:28:09.354038,116.553749,0.226969,,,,,,keyboard,,{},2,0.016667,60.000000,1
Sergio_G01_CNS-LLF5HT7Y0,s01,offmed_offstim,20260322_162605,2026-03-22 16:26:12.800053,NaN,1,probe,SESSION_END,3,2026-03-22 16:28:09.580912,116.780718,NaN,,,,,,keyboard,,{},2,0.016667,60.000000,1
