file_version,subject,condition,session,task_start_time,block,trial,phase,event_name,event_code,wall_clock,t_rel_sec,duration_to_next,rt,value_shown,entered_value,correct,key_name,device,note,json,screen_index,ifi,refresh_hz,pd_used
Sergio_G01_CNS-LLF5HT7Y0,test,OFFmed_OFFstim,20251211_123412,2025-12-11 12:34:19.918260,1,NaN,,BLOCK_START,10,2025-12-11 12:34:40.567487,20.647875,0.057240,,,,,,keyboard,,{},2,0.008333,120.000000,1
Sergio_G01_CNS-LLF5HT7Y0,test,OFFmed_OFFstim,20251211_123412,2025-12-11 12:34:19.918260,1,0,reading,START_PAGE_ON,4,2025-12-11 12:34:40.654958,20.705115,0.036290,,,,,,keyboard,,"{""pd_used"":0}",2,0.008333,120.000000,1
Sergio_G01_CNS-LLF5HT7Y0,test,OFFmed_OFFstim,20251211_123412,2025-12-11 12:34:19.918260,1,0,reading,START_PAGE_ON,4,2025-12-11 12:34:40.654958,20.705115,1.005233,,,,,,keyboard,,"{""pd_used"":0}",2,0.008333,120.000000,1
Sergio_G01_CNS-LLF5HT7Y0,test,OFFmed_OFFstim,20251211_123412,2025-12-11 12:34:19.918260,1,0,reading,START_PAGE_ON,4,2025-12-11 12:34:40.654958,20.705115,1.363558,,,,,,keyboard,,"{""pd_used"":0}",2,0.008333,120.000000,1
Sergio_G01_CNS-LLF5HT7Y0,test,OFFmed_OFFstim,20251211_123412,2025-12-11 12:34:19.918260,1,0,reading,CONTROL_START,23,2025-12-11 12:34:41.987155,22.068673,0.055580,,,,,,keyboard,,{},2,0.008333,120.000000,1
Sergio_G01_CNS-LLF5HT7Y0,test,OFFmed_OFFstim,20251211_123412,2025-12-11 12:34:19.918260,1,0,reading,READ_DIGIT1_ON,201,2025-12-11 12:34:42.075537,22.124253,3.562857,,5,,,,keyboard,digit#1 shown,"{""value"":5,""note"":""digit#1 shown"",""pd_used"":0}",2,0.008333,120.000000,1
Sergio_G01_CNS-LLF5HT7Y0,test,OFFmed_OFFstim,20251211_123412,2025-12-11 12:34:19.918260,1,0,reading,PROBE_COUNT_OK_1,71,2025-12-11 12:34:46.216458,25.687110,0.658142,5.003341,slot#1,NaN,,,keyboard,probe_digit#1,"{""value"":""slot#1"",""entered"":null,""rt"":5.0033414999779779,""note"":""probe_digit#1""}",2,0.008333,120.000000,1
Sergio_G01_CNS-LLF5HT7Y0,test,OFFmed_OFFstim,20251211_123412,2025-12-11 12:34:19.918260,1,0,reading,READ_DIGIT1_OFF,211,2025-12-11 12:34:46.298556,26.345251,0.000000,,5,,,,keyboard,digit#1 off,"{""value"":5,""note"":""digit#1 off"",""pd_used"":0}",2,0.008333,120.000000,1
Sergio_G01_CNS-LLF5HT7Y0,test,OFFmed_OFFstim,20251211_123412,2025-12-11 12:34:19.918260,1,0,reading,POSTREAD_FIX1_ON,231,2025-12-11 12:34:46.302266,26.345251,1.592307,,,,,,keyboard,after digit#1,"{""note"":""after digit#1""}",2,0.008333,120.000000,1
Sergio_G01_CNS-LLF5HT7Y0,test,OFFmed_OFFstim,20251211_123412,2025-12-11 12:34:19.918260,1,0,reading,POSTREAD_FIX1_OFF,241,2025-12-11 12:34:47.891248,27.937558,0.054937,,,,,,keyboard,after digit#1,"{""note"":""after digit#1"",""pd_used"":0}",2,0.008333,120.000000,1
Sergio_G01_CNS-LLF5HT7Y0,test,OFFmed_OFFstim,20251211_123412,2025-12-11 12:34:19.918260,1,0,reading,READ_DIGIT2_ON,202,2025-12-11 12:34:47.945207,27.992495,0.921146,,2,,,,keyboard,digit#2 shown,"{""value"":2,""note"":""digit#2 shown"",""pd_used"":0}",2,0.008333,120.000000,1
Sergio_G01_CNS-LLF5HT7Y0,test,OFFmed_OFFstim,20251211_123412,2025-12-11 12:34:19.918260,1,0,reading,PROBE_COUNT_OK_2,71,2025-12-11 12:34:49.214538,28.913641,0.426283,8.229872,slot#2,NaN,,,keyboard,probe_digit#2,"{""value"":""slot#2"",""entered"":null,""rt"":8.229872299998533,""note"":""probe_digit#2""}",2,0.008333,120.000000,1
Sergio_G01_CNS-LLF5HT7Y0,test,OFFmed_OFFstim,20251211_123412,2025-12-11 12:34:19.918260,1,0,reading,READ_DIGIT2_OFF,212,2025-12-11 12:34:49.295255,29.339924,0.000000,,2,,,,keyboard,digit#2 off,"{""value"":2,""note"":""digit#2 off"",""pd_used"":0}",2,0.008333,120.000000,1
Sergio_G01_CNS-LLF5HT7Y0,test,OFFmed_OFFstim,20251211_123412,2025-12-11 12:34:19.918260,1,0,reading,POSTREAD_FIX2_ON,232,2025-12-11 12:34:49.298248,29.339924,1.566245,,,,,,keyboard,after digit#2,"{""note"":""after digit#2""}",2,0.008333,120.000000,1
Sergio_G01_CNS-LLF5HT7Y0,test,OFFmed_OFFstim,20251211_123412,2025-12-11 12:34:19.918260,1,0,reading,POSTREAD_FIX2_OFF,242,2025-12-11 12:34:50.860331,30.906169,0.053182,,,,,,keyboard,after digit#2,"{""note"":""after digit#2"",""pd_used"":0}",2,0.008333,120.000000,1
Sergio_G01_CNS-LLF5HT7Y0,test,OFFmed_OFFstim,20251211_123412,2025-12-11 12:34:19.918260,1,0,reading,READ_DIGIT3_ON,203,2025-12-11 12:34:50.912603,30.959351,0.496298,,4,,,,keyboard,digit#3 shown,"{""value"":4,""note"":""digit#3 shown"",""pd_used"":0}",2,0.008333,120.000000,1
Sergio_G01_CNS-LLF5HT7Y0,test,OFFmed_OFFstim,20251211_123412,2025-12-11 12:34:19.918260,1,0,reading,PROBE_COUNT_OK_3,71,2025-12-11 12:34:51.974743,31.455649,0.644374,10.771880,slot#3,NaN,,,keyboard,probe_digit#3,"{""value"":""slot#3"",""entered"":null,""rt"":10.771880399988731,""note"":""probe_digit#3""}",2,0.008333,120.000000,1
Sergio_G01_CNS-LLF5HT7Y0,test,OFFmed_OFFstim,20251211_123412,2025-12-11 12:34:19.918260,1,0,reading,READ_DIGIT3_OFF,213,2025-12-11 12:34:52.055284,32.100023,0.000000,,4,,,,keyboard,digit#3 off,"{""value"":4,""note"":""digit#3 off"",""pd_used"":0}",2,0.008333,120.000000,1
Sergio_G01_CNS-LLF5HT7Y0,test,OFFmed_OFFstim,20251211_123412,2025-12-11 12:34:19.918260,1,0,reading,POSTREAD_FIX3_ON,233,2025-12-11 12:34:52.057910,32.100023,1.652712,,,,,,keyboard,after digit#3,"{""note"":""after digit#3""}",2,0.008333,120.000000,1
Sergio_G01_CNS-LLF5HT7Y0,test,OFFmed_OFFstim,20251211_123412,2025-12-11 12:34:19.918260,1,0,reading,POSTREAD_FIX3_OFF,243,2025-12-11 12:34:53.706364,33.752735,0.055969,,,,,,keyboard,after digit#3,"{""note"":""after digit#3"",""pd_used"":0}",2,0.008333,120.000000,1
Sergio_G01_CNS-LLF5HT7Y0,test,OFFmed_OFFstim,20251211_123412,2025-12-11 12:34:19.918260,1,0,reading,READ_DIGIT4_ON,204,2025-12-11 12:34:53.760512,33.808704,0.507828,,0,,,,keyboard,digit#4 shown,"{""value"":0,""note"":""digit#4 shown"",""pd_used"":0}",2,0.008333,120.000000,1
Sergio_G01_CNS-LLF5HT7Y0,test,OFFmed_OFFstim,20251211_123412,2025-12-11 12:34:19.918260,1,0,reading,PROBE_COUNT_OK_4,71,2025-12-11 12:34:54.833590,34.316532,0.641404,13.632763,slot#4,NaN,,,keyboard,probe_digit#4,"{""value"":""slot#4"",""entered"":null,""rt"":13.632763499976136,""note"":""probe_digit#4""}",2,0.008333,120.000000,1
Sergio_G01_CNS-LLF5HT7Y0,test,OFFmed_OFFstim,20251211_123412,2025-12-11 12:34:19.918260,1,0,reading,READ_DIGIT4_OFF,214,2025-12-11 12:34:54.912240,34.957936,0.000000,,0,,,,keyboard,digit#4 off,"{""value"":0,""note"":""digit#4 off"",""pd_used"":0}",2,0.008333,120.000000,1
Sergio_G01_CNS-LLF5HT7Y0,test,OFFmed_OFFstim,20251211_123412,2025-12-11 12:34:19.918260,1,0,reading,POSTREAD_FIX4_ON,234,2025-12-11 12:34:54.914917,34.957936,2.037446,,,,,,keyboard,after digit#4,"{""note"":""after digit#4""}",2,0.008333,120.000000,1
Sergio_G01_CNS-LLF5HT7Y0,test,OFFmed_OFFstim,20251211_123412,2025-12-11 12:34:19.918260,1,0,reading,POSTREAD_FIX4_OFF,244,2025-12-11 12:34:56.946093,36.995382,0.048267,,,,,,keyboard,after digit#4,"{""note"":""after digit#4"",""pd_used"":0}",2,0.008333,120.000000,1
Sergio_G01_CNS-LLF5HT7Y0,test,OFFmed_OFFstim,20251211_123412,2025-12-11 12:34:19.918260,1,0,reading,READ_DIGIT5_ON,205,2025-12-11 12:34:56.996125,37.043648,0.490402,,6,,,,keyboard,digit#5 shown,"{""value"":6,""note"":""digit#5 shown"",""pd_used"":0}",2,0.008333,120.000000,1
Sergio_G01_CNS-LLF5HT7Y0,test,OFFmed_OFFstim,20251211_123412,2025-12-11 12:34:19.918260,1,0,reading,PROBE_COUNT_OK_5,71,2025-12-11 12:34:57.865557,37.534051,0.456111,16.850283,slot#5,NaN,,,keyboard,probe_digit#5,"{""value"":""slot#5"",""entered"":null,""rt"":16.850282599974889,""note"":""probe_digit#5""}",2,0.008333,120.000000,1
Sergio_G01_CNS-LLF5HT7Y0,test,OFFmed_OFFstim,20251211_123412,2025-12-11 12:34:19.918260,1,0,reading,READ_DIGIT5_OFF,215,2025-12-11 12:34:57.943736,37.990162,0.000000,,6,,,,keyboard,digit#5 off,"{""value"":6,""note"":""digit#5 off"",""pd_used"":0}",2,0.008333,120.000000,1
Sergio_G01_CNS-LLF5HT7Y0,test,OFFmed_OFFstim,20251211_123412,2025-12-11 12:34:19.918260,1,0,reading,POSTREAD_FIX5_ON,235,2025-12-11 12:34:57.946196,37.990162,1.602682,,,,,,keyboard,after digit#5,"{""note"":""after digit#5""}",2,0.008333,120.000000,1
Sergio_G01_CNS-LLF5HT7Y0,test,OFFmed_OFFstim,20251211_123412,2025-12-11 12:34:19.918260,1,0,reading,POSTREAD_FIX5_OFF,245,2025-12-11 12:34:59.546262,39.592843,0.052411,,,,,,keyboard,after digit#5,"{""note"":""after digit#5"",""pd_used"":0}",2,0.008333,120.000000,1
Sergio_G01_CNS-LLF5HT7Y0,test,OFFmed_OFFstim,20251211_123412,2025-12-11 12:34:19.918260,1,0,reading,READ_DIGIT6_ON,206,2025-12-11 12:34:59.597972,39.645255,0.594069,,3,,,,keyboard,digit#6 shown,"{""value"":3,""note"":""digit#6 shown"",""pd_used"":0}",2,0.008333,120.000000,1
Sergio_G01_CNS-LLF5HT7Y0,test,OFFmed_OFFstim,20251211_123412,2025-12-11 12:34:19.918260,1,0,reading,PROBE_COUNT_OK_6,71,2025-12-11 12:35:00.594056,40.239324,0.478795,19.555555,slot#6,NaN,,,keyboard,probe_digit#6,"{""value"":""slot#6"",""entered"":null,""rt"":19.555555300001288,""note"":""probe_digit#6""}",2,0.008333,120.000000,1
Sergio_G01_CNS-LLF5HT7Y0,test,OFFmed_OFFstim,20251211_123412,2025-12-11 12:34:19.918260,1,0,reading,READ_DIGIT6_OFF,216,2025-12-11 12:35:00.672233,40.718119,0.000000,,3,,,,keyboard,digit#6 off,"{""value"":3,""note"":""digit#6 off"",""pd_used"":0}",2,0.008333,120.000000,1
Sergio_G01_CNS-LLF5HT7Y0,test,OFFmed_OFFstim,20251211_123412,2025-12-11 12:34:19.918260,1,0,reading,POSTREAD_FIX6_ON,236,2025-12-11 12:35:00.674090,40.718119,1.743702,,,,,,keyboard,after digit#6,"{""note"":""after digit#6""}",2,0.008333,120.000000,1
Sergio_G01_CNS-LLF5HT7Y0,test,OFFmed_OFFstim,20251211_123412,2025-12-11 12:34:19.918260,1,0,reading,POSTREAD_FIX6_OFF,246,2025-12-11 12:35:02.415103,42.461821,0.052241,,,,,,keyboard,after digit#6,"{""note"":""after digit#6"",""pd_used"":0}",2,0.008333,120.000000,1
Sergio_G01_CNS-LLF5HT7Y0,test,OFFmed_OFFstim,20251211_123412,2025-12-11 12:34:19.918260,1,0,reading,READ_DIGIT7_ON,207,2025-12-11 12:35:02.466730,42.514061,0.491266,,7,,,,keyboard,digit#7 shown,"{""value"":7,""note"":""digit#7 shown"",""pd_used"":0}",2,0.008333,120.000000,1
Sergio_G01_CNS-LLF5HT7Y0,test,OFFmed_OFFstim,20251211_123412,2025-12-11 12:34:19.918260,1,0,reading,PROBE_COUNT_OK_7,71,2025-12-11 12:35:03.514609,43.005327,0.634132,22.321559,slot#7,NaN,,,keyboard,probe_digit#7,"{""value"":""slot#7"",""entered"":null,""rt"":22.321558800002094,""note"":""probe_digit#7""}",2,0.008333,120.000000,1
Sergio_G01_CNS-LLF5HT7Y0,test,OFFmed_OFFstim,20251211_123412,2025-12-11 12:34:19.918260,1,0,reading,READ_DIGIT7_OFF,217,2025-12-11 12:35:03.596718,43.639459,0.000000,,7,,,,keyboard,digit#7 off,"{""value"":7,""note"":""digit#7 off"",""pd_used"":0}",2,0.008333,120.000000,1
Sergio_G01_CNS-LLF5HT7Y0,test,OFFmed_OFFstim,20251211_123412,2025-12-11 12:34:19.918260,1,0,reading,POSTREAD_FIX7_ON,237,2025-12-11 12:35:03.598424,43.639459,1.817576,,,,,,keyboard,after digit#7,"{""note"":""after digit#7""}",2,0.008333,120.000000,1
Sergio_G01_CNS-LLF5HT7Y0,test,OFFmed_OFFstim,20251211_123412,2025-12-11 12:34:19.918260,1,0,reading,POSTREAD_FIX7_OFF,247,2025-12-11 12:35:05.410034,45.457034,0.052388,,,,,,keyboard,after digit#7,"{""note"":""after digit#7"",""pd_used"":0}",2,0.008333,120.000000,1
Sergio_G01_CNS-LLF5HT7Y0,test,OFFmed_OFFstim,20251211_123412,2025-12-11 12:34:19.918260,1,0,reading,READ_DIGIT8_ON,208,2025-12-11 12:35:05.461309,45.509422,0.492543,,9,,,,keyboard,digit#8 shown,"{""value"":9,""note"":""digit#8 shown"",""pd_used"":0}",2,0.008333,120.000000,1
Sergio_G01_CNS-LLF5HT7Y0,test,OFFmed_OFFstim,20251211_123412,2025-12-11 12:34:19.918260,1,0,reading,PROBE_COUNT_OK_8,71,2025-12-11 12:35:06.564947,46.001965,0.687817,25.318196,slot#8,NaN,,,keyboard,probe_digit#8,"{""value"":""slot#8"",""entered"":null,""rt"":25.31819649998215,""note"":""probe_digit#8""}",2,0.008333,120.000000,1
Sergio_G01_CNS-LLF5HT7Y0,test,OFFmed_OFFstim,20251211_123412,2025-12-11 12:34:19.918260,1,0,reading,READ_DIGIT8_OFF,218,2025-12-11 12:35:06.643880,46.689782,0.000000,,9,,,,keyboard,digit#8 off,"{""value"":9,""note"":""digit#8 off"",""pd_used"":0}",2,0.008333,120.000000,1
Sergio_G01_CNS-LLF5HT7Y0,test,OFFmed_OFFstim,20251211_123412,2025-12-11 12:34:19.918260,1,0,reading,POSTREAD_FIX8_ON,238,2025-12-11 12:35:06.646451,46.689782,1.927122,,,,,,keyboard,after digit#8,"{""note"":""after digit#8""}",2,0.008333,120.000000,1
Sergio_G01_CNS-LLF5HT7Y0,test,OFFmed_OFFstim,20251211_123412,2025-12-11 12:34:19.918260,1,0,reading,POSTREAD_FIX8_OFF,248,2025-12-11 12:35:08.569630,48.616904,0.051768,,,,,,keyboard,after digit#8,"{""note"":""after digit#8"",""pd_used"":0}",2,0.008333,120.000000,1
Sergio_G01_CNS-LLF5HT7Y0,test,OFFmed_OFFstim,20251211_123412,2025-12-11 12:34:19.918260,1,0,reading,READ_DIGIT9_ON,209,2025-12-11 12:35:08.620586,48.668672,1.291485,,1,,,,keyboard,digit#9 shown,"{""value"":1,""note"":""digit#9 shown"",""pd_used"":0}",2,0.008333,120.000000,1
Sergio_G01_CNS-LLF5HT7Y0,test,OFFmed_OFFstim,20251211_123412,2025-12-11 12:34:19.918260,1,0,reading,PROBE_COUNT_OK_9,71,2025-12-11 12:35:10.584873,49.960157,0.748847,29.276389,slot#9,NaN,,,keyboard,probe_digit#9,"{""value"":""slot#9"",""entered"":null,""rt"":29.276388999976916,""note"":""probe_digit#9""}",2,0.008333,120.000000,1
Sergio_G01_CNS-LLF5HT7Y0,test,OFFmed_OFFstim,20251211_123412,2025-12-11 12:34:19.918260,1,0,reading,READ_DIGIT9_OFF,219,2025-12-11 12:35:10.663156,50.709004,0.000000,,1,,,,keyboard,digit#9 off,"{""value"":1,""note"":""digit#9 off"",""pd_used"":0}",2,0.008333,120.000000,1
Sergio_G01_CNS-LLF5HT7Y0,test,OFFmed_OFFstim,20251211_123412,2025-12-11 12:34:19.918260,1,0,reading,POSTREAD_FIX9_ON,239,2025-12-11 12:35:10.666248,50.709004,1.736704,,,,,,keyboard,after digit#9,"{""note"":""after digit#9""}",2,0.008333,120.000000,1
Sergio_G01_CNS-LLF5HT7Y0,test,OFFmed_OFFstim,20251211_123412,2025-12-11 12:34:19.918260,1,0,reading,POSTREAD_FIX9_OFF,249,2025-12-11 12:35:12.398695,52.445708,0.051862,,,,,,keyboard,after digit#9,"{""note"":""after digit#9"",""pd_used"":0}",2,0.008333,120.000000,1
Sergio_G01_CNS-LLF5HT7Y0,test,OFFmed_OFFstim,20251211_123412,2025-12-11 12:34:19.918260,1,0,reading,READ_DIGIT10_ON,210,2025-12-11 12:35:12.449714,52.497571,0.101005,,9,,,,keyboard,digit#10 shown,"{""value"":9,""note"":""digit#10 shown"",""pd_used"":0}",2,0.008333,120.000000,1
Sergio_G01_CNS-LLF5HT7Y0,test,OFFmed_OFFstim,20251211_123412,2025-12-11 12:34:19.918260,1,0,reading,PROBE_COUNT_OK_10,71,2025-12-11 12:35:12.982034,52.598575,0.508558,31.914807,slot#10,NaN,,,keyboard,probe_digit#10,"{""value"":""slot#10"",""entered"":null,""rt"":31.914806699991459,""note"":""probe_digit#10""}",2,0.008333,120.000000,1
Sergio_G01_CNS-LLF5HT7Y0,test,OFFmed_OFFstim,20251211_123412,2025-12-11 12:34:19.918260,1,0,reading,READ_DIGIT10_OFF,220,2025-12-11 12:35:13.060712,53.107133,0.000000,,9,,,,keyboard,digit#10 off,"{""value"":9,""note"":""digit#10 off"",""pd_used"":0}",2,0.008333,120.000000,1
Sergio_G01_CNS-LLF5HT7Y0,test,OFFmed_OFFstim,20251211_123412,2025-12-11 12:34:19.918260,1,0,reading,POSTREAD_FIX10_ON,240,2025-12-11 12:35:13.063391,53.107133,3.082876,,,,,,keyboard,after digit#10,"{""note"":""after digit#10""}",2,0.008333,120.000000,1
Sergio_G01_CNS-LLF5HT7Y0,test,OFFmed_OFFstim,20251211_123412,2025-12-11 12:34:19.918260,1,0,reading,POSTREAD_FIX10_OFF,250,2025-12-11 12:35:16.143502,56.190009,0.043175,,,,,,keyboard,after digit#10,"{""note"":""after digit#10"",""pd_used"":0}",2,0.008333,120.000000,1
Sergio_G01_CNS-LLF5HT7Y0,test,OFFmed_OFFstim,20251211_123412,2025-12-11 12:34:19.918260,1,0,reading,CONTROL_END,24,2025-12-11 12:35:16.152173,56.233184,0.044487,,,,,,keyboard,,{},2,0.008333,120.000000,1
Sergio_G01_CNS-LLF5HT7Y0,test,OFFmed_OFFstim,20251211_123412,2025-12-11 12:34:19.918260,1,0,reading,START_PAGE_ON,4,2025-12-11 12:35:16.230978,56.277671,0.049298,,,,,,keyboard,,"{""pd_used"":0}",2,0.008333,120.000000,1
Sergio_G01_CNS-LLF5HT7Y0,test,OFFmed_OFFstim,20251211_123412,2025-12-11 12:34:19.918260,1,0,reading,START_PAGE_ON,4,2025-12-11 12:35:16.230978,56.277671,1.352760,,,,,,keyboard,,"{""pd_used"":0}",2,0.008333,120.000000,1
Sergio_G01_CNS-LLF5HT7Y0,test,OFFmed_OFFstim,20251211_123412,2025-12-11 12:34:19.918260,1,0,reading,START_PAGE_ON,4,2025-12-11 12:35:16.230978,56.277671,1.695942,,,,,,keyboard,,"{""pd_used"":0}",2,0.008333,120.000000,1
Sergio_G01_CNS-LLF5HT7Y0,test,OFFmed_OFFstim,20251211_123412,2025-12-11 12:34:19.918260,1,0,reading,SESSION_START,1,2025-12-11 12:35:17.893119,57.973614,0.023735,,,,,,keyboard,,{},2,0.008333,120.000000,1
Sergio_G01_CNS-LLF5HT7Y0,test,OFFmed_OFFstim,20251211_123412,2025-12-11 12:34:19.918260,1,1,reading,TRIAL_CHANGE,22,2025-12-11 12:35:17.916384,57.997348,0.002133,,,,,,keyboard,trial transition,"{""note"":""trial transition""}",2,0.008333,120.000000,1
Sergio_G01_CNS-LLF5HT7Y0,test,OFFmed_OFFstim,20251211_123412,2025-12-11 12:34:19.918260,1,1,reading,TRIAL_START,20,2025-12-11 12:35:17.918131,57.999482,0.049969,,,,,,keyboard,,{},2,0.008333,120.000000,1
Sergio_G01_CNS-LLF5HT7Y0,test,OFFmed_OFFstim,20251211_123412,2025-12-11 12:34:19.918260,1,1,fix1,FIX1_ON,30,2025-12-11 12:35:18.003112,58.049450,3.210459,,,,,,keyboard,,"{""pd_used"":0}",2,0.008333,120.000000,1
Sergio_G01_CNS-LLF5HT7Y0,test,OFFmed_OFFstim,20251211_123412,2025-12-11 12:34:19.918260,1,1,fix1,FIX1_OFF,31,2025-12-11 12:35:21.212641,61.259910,0.046533,,,,,,keyboard,,"{""pd_used"":0}",2,0.008333,120.000000,1
Sergio_G01_CNS-LLF5HT7Y0,test,OFFmed_OFFstim,20251211_123412,2025-12-11 12:34:19.918260,1,1,digit,DIGIT1_ON,141,2025-12-11 12:35:21.258917,61.306442,0.547679,,9,,,,keyboard,digit#1 shown,"{""value"":9,""note"":""digit#1 shown"",""pd_used"":1}",2,0.008333,120.000000,1
Sergio_G01_CNS-LLF5HT7Y0,test,OFFmed_OFFstim,20251211_123412,2025-12-11 12:34:19.918260,1,1,digit,DIGIT1_OFF,146,2025-12-11 12:35:21.806902,61.854121,0.000000,,9,,,,keyboard,digit#1 off,"{""value"":9,""note"":""digit#1 off"",""pd_used"":0}",2,0.008333,120.000000,1
Sergio_G01_CNS-LLF5HT7Y0,test,OFFmed_OFFstim,20251211_123412,2025-12-11 12:34:19.918260,1,1,digit,POSTDIG_FIX1_ON,151,2025-12-11 12:35:21.810103,61.854121,1.856123,,,,,,keyboard,after digit#1,"{""note"":""after digit#1""}",2,0.008333,120.000000,1
Sergio_G01_CNS-LLF5HT7Y0,test,OFFmed_OFFstim,20251211_123412,2025-12-11 12:34:19.918260,1,1,digit,POSTDIG_FIX1_OFF,156,2025-12-11 12:35:23.661049,63.710244,0.041513,,,,,,keyboard,after digit#1,"{""note"":""after digit#1"",""pd_used"":0}",2,0.008333,120.000000,1
Sergio_G01_CNS-LLF5HT7Y0,test,OFFmed_OFFstim,20251211_123412,2025-12-11 12:34:19.918260,1,1,digit,DIGIT2_ON,142,2025-12-11 12:35:23.704303,63.751757,0.545637,,2,,,,keyboard,digit#2 shown,"{""value"":2,""note"":""digit#2 shown"",""pd_used"":1}",2,0.008333,120.000000,1
Sergio_G01_CNS-LLF5HT7Y0,test,OFFmed_OFFstim,20251211_123412,2025-12-11 12:34:19.918260,1,1,digit,DIGIT2_OFF,147,2025-12-11 12:35:24.251135,64.297394,0.000000,,2,,,,keyboard,digit#2 off,"{""value"":2,""note"":""digit#2 off"",""pd_used"":0}",2,0.008333,120.000000,1
Sergio_G01_CNS-LLF5HT7Y0,test,OFFmed_OFFstim,20251211_123412,2025-12-11 12:34:19.918260,1,1,digit,POSTDIG_FIX2_ON,152,2025-12-11 12:35:24.253565,64.297394,1.870519,,,,,,keyboard,after digit#2,"{""note"":""after digit#2""}",2,0.008333,120.000000,1
Sergio_G01_CNS-LLF5HT7Y0,test,OFFmed_OFFstim,20251211_123412,2025-12-11 12:34:19.918260,1,1,digit,POSTDIG_FIX2_OFF,157,2025-12-11 12:35:26.121765,66.167913,0.046156,,,,,,keyboard,after digit#2,"{""note"":""after digit#2"",""pd_used"":0}",2,0.008333,120.000000,1
Sergio_G01_CNS-LLF5HT7Y0,test,OFFmed_OFFstim,20251211_123412,2025-12-11 12:34:19.918260,1,1,digit,DIGIT3_ON,143,2025-12-11 12:35:26.166633,66.214068,0.544503,,5,,,,keyboard,digit#3 shown,"{""value"":5,""note"":""digit#3 shown"",""pd_used"":1}",2,0.008333,120.000000,1
Sergio_G01_CNS-LLF5HT7Y0,test,OFFmed_OFFstim,20251211_123412,2025-12-11 12:34:19.918260,1,1,digit,DIGIT3_OFF,148,2025-12-11 12:35:26.711935,66.758571,0.000000,,5,,,,keyboard,digit#3 off,"{""value"":5,""note"":""digit#3 off"",""pd_used"":0}",2,0.008333,120.000000,1
Sergio_G01_CNS-LLF5HT7Y0,test,OFFmed_OFFstim,20251211_123412,2025-12-11 12:34:19.918260,1,1,digit,POSTDIG_FIX3_ON,153,2025-12-11 12:35:26.714175,66.758571,1.560032,,,,,,keyboard,after digit#3,"{""note"":""after digit#3""}",2,0.008333,120.000000,1
Sergio_G01_CNS-LLF5HT7Y0,test,OFFmed_OFFstim,20251211_123412,2025-12-11 12:34:19.918260,1,1,digit,POSTDIG_FIX3_OFF,158,2025-12-11 12:35:28.272788,68.318603,0.046122,,,,,,keyboard,after digit#3,"{""note"":""after digit#3"",""pd_used"":0}",2,0.008333,120.000000,1
Sergio_G01_CNS-LLF5HT7Y0,test,OFFmed_OFFstim,20251211_123412,2025-12-11 12:34:19.918260,1,1,digit,DIGIT4_ON,144,2025-12-11 12:35:28.317065,68.364725,0.544992,,3,,,,keyboard,digit#4 shown,"{""value"":3,""note"":""digit#4 shown"",""pd_used"":1}",2,0.008333,120.000000,1
Sergio_G01_CNS-LLF5HT7Y0,test,OFFmed_OFFstim,20251211_123412,2025-12-11 12:34:19.918260,1,1,digit,DIGIT4_OFF,149,2025-12-11 12:35:28.863379,68.909717,0.000000,,3,,,,keyboard,digit#4 off,"{""value"":3,""note"":""digit#4 off"",""pd_used"":0}",2,0.008333,120.000000,1
Sergio_G01_CNS-LLF5HT7Y0,test,OFFmed_OFFstim,20251211_123412,2025-12-11 12:34:19.918260,1,1,digit,POSTDIG_FIX4_ON,154,2025-12-11 12:35:28.865902,68.909717,1.840691,,,,,,keyboard,after digit#4,"{""note"":""after digit#4""}",2,0.008333,120.000000,1
Sergio_G01_CNS-LLF5HT7Y0,test,OFFmed_OFFstim,20251211_123412,2025-12-11 12:34:19.918260,1,1,digit,POSTDIG_FIX4_OFF,159,2025-12-11 12:35:30.704335,70.750408,0.046304,,,,,,keyboard,after digit#4,"{""note"":""after digit#4"",""pd_used"":0}",2,0.008333,120.000000,1
Sergio_G01_CNS-LLF5HT7Y0,test,OFFmed_OFFstim,20251211_123412,2025-12-11 12:34:19.918260,1,1,digit,DIGIT5_ON,145,2025-12-11 12:35:30.748942,70.796713,0.544678,,5,,,,keyboard,digit#5 shown,"{""value"":5,""note"":""digit#5 shown"",""pd_used"":1}",2,0.008333,120.000000,1
Sergio_G01_CNS-LLF5HT7Y0,test,OFFmed_OFFstim,20251211_123412,2025-12-11 12:34:19.918260,1,1,digit,DIGIT5_OFF,150,2025-12-11 12:35:31.295063,71.341390,0.000000,,5,,,,keyboard,digit#5 off,"{""value"":5,""note"":""digit#5 off"",""pd_used"":0}",2,0.008333,120.000000,1
Sergio_G01_CNS-LLF5HT7Y0,test,OFFmed_OFFstim,20251211_123412,2025-12-11 12:34:19.918260,1,1,digit,POSTDIG_FIX5_ON,155,2025-12-11 12:35:31.297354,71.341390,3.077767,,,,,,keyboard,after digit#5,"{""note"":""after digit#5""}",2,0.008333,120.000000,1
Sergio_G01_CNS-LLF5HT7Y0,test,OFFmed_OFFstim,20251211_123412,2025-12-11 12:34:19.918260,1,1,digit,POSTDIG_FIX5_OFF,160,2025-12-11 12:35:34.372940,74.419157,0.050614,,,,,,keyboard,after digit#5,"{""note"":""after digit#5"",""pd_used"":0}",2,0.008333,120.000000,1
Sergio_G01_CNS-LLF5HT7Y0,test,OFFmed_OFFstim,20251211_123412,2025-12-11 12:34:19.918260,1,1,distractor,DISTRACTOR_ON,50,2025-12-11 12:35:34.422984,74.469771,0.059694,,8+5=13,,,,keyboard,,"{""value"":""8+5=13"",""isCorrectTruth"":true,""trueSum"":13,""pd_used"":1}",2,0.008333,120.000000,1
Sergio_G01_CNS-LLF5HT7Y0,test,OFFmed_OFFstim,20251211_123412,2025-12-11 12:34:19.918260,1,1,distractor,DISTRACTOR_ANS,51,2025-12-11 12:35:34.794133,74.529465,0.000000,0.059694,8+5=13,F,0,,keyboard,key= (False),"{""value"":""8+5=13"",""entered"":""F"",""rt"":0.059693999995943159,""correct"":0,""note"":""key= (False)"",""truth"":true,""trueSum"":13,""shownSum"":13,""a"":8,""b"":5}",2,0.008333,120.000000,1
Sergio_G01_CNS-LLF5HT7Y0,test,OFFmed_OFFstim,20251211_123412,2025-12-11 12:34:19.918260,1,1,distractor,ANS_WRONG,101,2025-12-11 12:35:34.829699,74.529465,0.391592,,,,,,keyboard,,{},2,0.008333,120.000000,1
Sergio_G01_CNS-LLF5HT7Y0,test,OFFmed_OFFstim,20251211_123412,2025-12-11 12:34:19.918260,1,1,distractor,DISTRACTOR_OFF,52,2025-12-11 12:35:34.873934,74.921057,0.000000,,,,,,keyboard,,"{""pd_used"":0}",2,0.008333,120.000000,1
Sergio_G01_CNS-LLF5HT7Y0,test,OFFmed_OFFstim,20251211_123412,2025-12-11 12:34:19.918260,1,1,distractor,FIX2_ON,60,2025-12-11 12:35:34.875968,74.921057,3.411112,,,,,,keyboard,immediate after response,"{""note"":""immediate after response""}",2,0.008333,120.000000,1
Sergio_G01_CNS-LLF5HT7Y0,test,OFFmed_OFFstim,20251211_123412,2025-12-11 12:34:19.918260,1,1,fix2,FIX2_OFF,61,2025-12-11 12:35:38.286401,78.332169,0.047000,,,,,,keyboard,,"{""pd_used"":0}",2,0.008333,120.000000,1
Sergio_G01_CNS-LLF5HT7Y0,test,OFFmed_OFFstim,20251211_123412,2025-12-11 12:34:19.918260,1,1,probe,DIGIT_RECALL_LINE_1,161,2025-12-11 12:35:38.332734,78.379168,11.458232,,1,,,,keyboard,first recall question,"{""value"":1,""note"":""first recall question"",""pd_used"":1}",2,0.008333,120.000000,1
Sergio_G01_CNS-LLF5HT7Y0,test,OFFmed_OFFstim,20251211_123412,2025-12-11 12:34:19.918260,1,1,probe,PROBE_DIGIT_OK_1,71,2025-12-11 12:35:50.122913,89.837401,0.409842,11.467431,slot#1,NaN,,,keyboard,probe_digit#1,"{""value"":""slot#1"",""entered"":null,""rt"":11.467430999997305,""note"":""probe_digit#1""}",2,0.008333,120.000000,1
Sergio_G01_CNS-LLF5HT7Y0,test,OFFmed_OFFstim,20251211_123412,2025-12-11 12:34:19.918260,1,1,probe,DIGIT1_OFF,146,2025-12-11 12:35:50.200199,90.247243,0.000000,,5,,,,keyboard,digit#1 off,"{""value"":5,""note"":""digit#1 off"",""pd_used"":0}",2,0.008333,120.000000,1
Sergio_G01_CNS-LLF5HT7Y0,test,OFFmed_OFFstim,20251211_123412,2025-12-11 12:34:19.918260,1,1,probe,POSTDIG_FIX1_ON,151,2025-12-11 12:35:50.202623,90.247243,1.776536,,,,,,keyboard,after digit#1,"{""note"":""after digit#1""}",2,0.008333,120.000000,1
Sergio_G01_CNS-LLF5HT7Y0,test,OFFmed_OFFstim,20251211_123412,2025-12-11 12:34:19.918260,1,1,probe,POSTDIG_FIX1_OFF,156,2025-12-11 12:35:51.976685,92.023780,0.054493,,,,,,keyboard,after digit#1,"{""note"":""after digit#1"",""pd_used"":0}",2,0.008333,120.000000,1
Sergio_G01_CNS-LLF5HT7Y0,test,OFFmed_OFFstim,20251211_123412,2025-12-11 12:34:19.918260,1,1,probe,DIGIT_RECALL_LINE_2,162,2025-12-11 12:35:52.031115,92.078273,45.539776,,2,,,,keyboard,next recall question,"{""value"":2,""note"":""next recall question"",""pd_used"":1}",2,0.008333,120.000000,1
Sergio_G01_CNS-LLF5HT7Y0,test,OFFmed_OFFstim,20251211_123412,2025-12-11 12:34:19.918260,1,1,probe,PROBE_DIGIT_OK_2,71,2025-12-11 12:36:37.880200,137.618049,0.384719,59.248080,slot#2,NaN,,,keyboard,probe_digit#2,"{""value"":""slot#2"",""entered"":null,""rt"":59.248079500015592,""note"":""probe_digit#2""}",2,0.008333,120.000000,1
Sergio_G01_CNS-LLF5HT7Y0,test,OFFmed_OFFstim,20251211_123412,2025-12-11 12:34:19.918260,1,1,probe,DIGIT2_OFF,147,2025-12-11 12:36:37.959222,138.002768,0.000000,,5,,,,keyboard,digit#2 off,"{""value"":5,""note"":""digit#2 off"",""pd_used"":0}",2,0.008333,120.000000,1
Sergio_G01_CNS-LLF5HT7Y0,test,OFFmed_OFFstim,20251211_123412,2025-12-11 12:34:19.918260,1,1,probe,POSTDIG_FIX2_ON,152,2025-12-11 12:36:37.961563,138.002768,1.641520,,,,,,keyboard,after digit#2,"{""note"":""after digit#2""}",2,0.008333,120.000000,1
Sergio_G01_CNS-LLF5HT7Y0,test,OFFmed_OFFstim,20251211_123412,2025-12-11 12:34:19.918260,1,1,probe,POSTDIG_FIX2_OFF,157,2025-12-11 12:36:39.598211,139.644288,0.063053,,,,,,keyboard,after digit#2,"{""note"":""after digit#2"",""pd_used"":0}",2,0.008333,120.000000,1
Sergio_G01_CNS-LLF5HT7Y0,test,OFFmed_OFFstim,20251211_123412,2025-12-11 12:34:19.918260,1,1,probe,DIGIT_RECALL_LINE_3,163,2025-12-11 12:36:39.660739,139.707340,0.592183,,3,,,,keyboard,next recall question,"{""value"":3,""note"":""next recall question"",""pd_used"":1}",2,0.008333,120.000000,1
Sergio_G01_CNS-LLF5HT7Y0,test,OFFmed_OFFstim,20251211_123412,2025-12-11 12:34:19.918260,1,1,probe,PROBE_DIGIT_OK_3,71,2025-12-11 12:36:40.555579,140.299523,0.381999,61.929553,slot#3,NaN,,,keyboard,probe_digit#3,"{""value"":""slot#3"",""entered"":null,""rt"":61.929553399997531,""note"":""probe_digit#3""}",2,0.008333,120.000000,1
Sergio_G01_CNS-LLF5HT7Y0,test,OFFmed_OFFstim,20251211_123412,2025-12-11 12:34:19.918260,1,1,probe,DIGIT3_OFF,148,2025-12-11 12:36:40.635424,140.681522,0.000000,,5,,,,keyboard,digit#3 off,"{""value"":5,""note"":""digit#3 off"",""pd_used"":0}",2,0.008333,120.000000,1
Sergio_G01_CNS-LLF5HT7Y0,test,OFFmed_OFFstim,20251211_123412,2025-12-11 12:34:19.918260,1,1,probe,POSTDIG_FIX3_ON,153,2025-12-11 12:36:40.637432,140.681522,1.657883,,,,,,keyboard,after digit#3,"{""note"":""after digit#3""}",2,0.008333,120.000000,1
Sergio_G01_CNS-LLF5HT7Y0,test,OFFmed_OFFstim,20251211_123412,2025-12-11 12:34:19.918260,1,1,probe,POSTDIG_FIX3_OFF,158,2025-12-11 12:36:42.293196,142.339405,0.052595,,,,,,keyboard,after digit#3,"{""note"":""after digit#3"",""pd_used"":0}",2,0.008333,120.000000,1
Sergio_G01_CNS-LLF5HT7Y0,test,OFFmed_OFFstim,20251211_123412,2025-12-11 12:34:19.918260,1,1,probe,DIGIT_RECALL_LINE_4,164,2025-12-11 12:36:42.345152,142.392000,2.580234,,4,,,,keyboard,next recall question,"{""value"":4,""note"":""next recall question"",""pd_used"":1}",2,0.008333,120.000000,1
Sergio_G01_CNS-LLF5HT7Y0,test,OFFmed_OFFstim,20251211_123412,2025-12-11 12:34:19.918260,1,1,probe,PROBE_DIGIT_OK_4,71,2025-12-11 12:36:45.236383,144.972235,0.388510,66.602265,slot#4,NaN,,,keyboard,probe_digit#4,"{""value"":""slot#4"",""entered"":null,""rt"":66.602265100023942,""note"":""probe_digit#4""}",2,0.008333,120.000000,1
Sergio_G01_CNS-LLF5HT7Y0,test,OFFmed_OFFstim,20251211_123412,2025-12-11 12:34:19.918260,1,1,probe,DIGIT4_OFF,149,2025-12-11 12:36:45.315443,145.360745,0.000000,,5,,,,keyboard,digit#4 off,"{""value"":5,""note"":""digit#4 off"",""pd_used"":0}",2,0.008333,120.000000,1
Sergio_G01_CNS-LLF5HT7Y0,test,OFFmed_OFFstim,20251211_123412,2025-12-11 12:34:19.918260,1,1,probe,POSTDIG_FIX4_ON,154,2025-12-11 12:36:45.317276,145.360745,2.028448,,,,,,keyboard,after digit#4,"{""note"":""after digit#4""}",2,0.008333,120.000000,1
Sergio_G01_CNS-LLF5HT7Y0,test,OFFmed_OFFstim,20251211_123412,2025-12-11 12:34:19.918260,1,1,probe,POSTDIG_FIX4_OFF,159,2025-12-11 12:36:47.342413,147.389193,0.052267,,,,,,keyboard,after digit#4,"{""note"":""after digit#4"",""pd_used"":0}",2,0.008333,120.000000,1
Sergio_G01_CNS-LLF5HT7Y0,test,OFFmed_OFFstim,20251211_123412,2025-12-11 12:34:19.918260,1,1,probe,DIGIT_RECALL_LINE_5,165,2025-12-11 12:36:47.394152,147.441460,3.412907,,5,,,,keyboard,next recall question,"{""value"":5,""note"":""next recall question"",""pd_used"":1}",2,0.008333,120.000000,1
Sergio_G01_CNS-LLF5HT7Y0,test,OFFmed_OFFstim,20251211_123412,2025-12-11 12:34:19.918260,1,1,probe,PROBE_DIGIT_OK_5,71,2025-12-11 12:36:51.125465,150.854367,0.396336,72.484397,slot#5,NaN,,,keyboard,probe_digit#5,"{""value"":""slot#5"",""entered"":null,""rt"":72.484397200023523,""note"":""probe_digit#5""}",2,0.008333,120.000000,1
Sergio_G01_CNS-LLF5HT7Y0,test,OFFmed_OFFstim,20251211_123412,2025-12-11 12:34:19.918260,1,1,probe,DIGIT5_OFF,150,2025-12-11 12:36:51.205979,151.250703,0.000000,,5,,,,keyboard,digit#5 off,"{""value"":5,""note"":""digit#5 off"",""pd_used"":0}",2,0.008333,120.000000,1
Sergio_G01_CNS-LLF5HT7Y0,test,OFFmed_OFFstim,20251211_123412,2025-12-11 12:34:19.918260,1,1,probe,POSTDIG_FIX5_ON,155,2025-12-11 12:36:51.208163,151.250703,3.245462,,,,,,keyboard,after digit#5,"{""note"":""after digit#5""}",2,0.008333,120.000000,1
Sergio_G01_CNS-LLF5HT7Y0,test,OFFmed_OFFstim,20251211_123412,2025-12-11 12:34:19.918260,1,1,probe,POSTDIG_FIX5_OFF,160,2025-12-11 12:36:54.448028,154.496164,0.041170,,,,,,keyboard,after digit#5,"{""note"":""after digit#5"",""pd_used"":0}",2,0.008333,120.000000,1
Sergio_G01_CNS-LLF5HT7Y0,test,OFFmed_OFFstim,20251211_123412,2025-12-11 12:34:19.918260,1,1,probe,PROBE_DONE,73,2025-12-11 12:36:54.455590,154.537334,0.000812,,,,,,keyboard,probe complete,"{""value"":"""",""note"":""probe complete""}",2,0.008333,120.000000,1
Sergio_G01_CNS-LLF5HT7Y0,test,OFFmed_OFFstim,20251211_123412,2025-12-11 12:34:19.918260,1,1,probe,TRIAL_END,21,2025-12-11 12:36:54.456329,154.538146,0.033735,,,,,,keyboard,,{},2,0.008333,120.000000,1
Sergio_G01_CNS-LLF5HT7Y0,test,OFFmed_OFFstim,20251211_123412,2025-12-11 12:34:19.918260,1,1,probe,BLOCK_END,11,2025-12-11 12:36:54.490594,154.571881,0.232580,,,,,,keyboard,,{},2,0.008333,120.000000,1
Sergio_G01_CNS-LLF5HT7Y0,test,OFFmed_OFFstim,20251211_123412,2025-12-11 12:34:19.918260,1,1,probe,SESSION_END,3,2025-12-11 12:36:54.722968,154.804461,NaN,,,,,,keyboard,,{},2,0.008333,120.000000,1
