file_version,subject,condition,session,task_start_time,block,trial,phase,event_name,event_code,wall_clock,t_rel_sec,duration_to_next,rt,value_shown,entered_value,correct,key_name,device,note,json,screen_index,ifi,refresh_hz,pd_used
Sergio_G01_CNS-LLF5HT7Y0,test,OFFmed_OFFstim,20251211_123115,2025-12-11 12:31:21.378854,1,NaN,,BLOCK_START,10,2025-12-11 12:31:45.747854,24.367803,0.047992,,,,,,keyboard,,{},2,0.008333,120.000000,1
Sergio_G01_CNS-LLF5HT7Y0,test,OFFmed_OFFstim,20251211_123115,2025-12-11 12:31:21.378854,1,0,reading,START_PAGE_ON,4,2025-12-11 12:31:45.803049,24.415795,0.026847,,,,,,keyboard,,"{""pd_used"":0}",2,0.008333,120.000000,1
Sergio_G01_CNS-LLF5HT7Y0,test,OFFmed_OFFstim,20251211_123115,2025-12-11 12:31:21.378854,1,0,reading,START_PAGE_ON,4,2025-12-11 12:31:45.803049,24.415795,1.052771,,,,,,keyboard,,"{""pd_used"":0}",2,0.008333,120.000000,1
Sergio_G01_CNS-LLF5HT7Y0,test,OFFmed_OFFstim,20251211_123115,2025-12-11 12:31:21.378854,1,0,reading,START_PAGE_ON,4,2025-12-11 12:31:45.803049,24.415795,1.394436,,,,,,keyboard,,"{""pd_used"":0}",2,0.008333,120.000000,1
Sergio_G01_CNS-LLF5HT7Y0,test,OFFmed_OFFstim,20251211_123115,2025-12-11 12:31:21.378854,1,0,reading,CONTROL_START,23,2025-12-11 12:31:47.189190,25.810231,0.024595,,,,,,keyboard,,{},2,0.008333,120.000000,1
Sergio_G01_CNS-LLF5HT7Y0,test,OFFmed_OFFstim,20251211_123115,2025-12-11 12:31:21.378854,1,0,reading,READ_DIGIT1_ON,201,2025-12-11 12:31:47.219222,25.834826,2.325900,,6,,,,keyboard,digit#1 shown,"{""value"":6,""note"":""digit#1 shown"",""pd_used"":0}",2,0.008333,120.000000,1
Sergio_G01_CNS-LLF5HT7Y0,test,OFFmed_OFFstim,20251211_123115,2025-12-11 12:31:21.378854,1,0,reading,PROBE_COUNT_OK_1,71,2025-12-11 12:31:49.931744,28.160726,0.417008,3.763138,slot#1,NaN,,,keyboard,probe_digit#1,"{""value"":""slot#1"",""entered"":null,""rt"":3.7631382000108715,""note"":""probe_digit#1""}",2,0.008333,120.000000,1
Sergio_G01_CNS-LLF5HT7Y0,test,OFFmed_OFFstim,20251211_123115,2025-12-11 12:31:21.378854,1,0,reading,READ_DIGIT1_OFF,211,2025-12-11 12:31:49.961473,28.577734,0.000000,,6,,,,keyboard,digit#1 off,"{""value"":6,""note"":""digit#1 off"",""pd_used"":0}",2,0.008333,120.000000,1
Sergio_G01_CNS-LLF5HT7Y0,test,OFFmed_OFFstim,20251211_123115,2025-12-11 12:31:21.378854,1,0,reading,POSTREAD_FIX1_ON,231,2025-12-11 12:31:49.964045,28.577734,1.992905,,,,,,keyboard,after digit#1,"{""note"":""after digit#1""}",2,0.008333,120.000000,1
Sergio_G01_CNS-LLF5HT7Y0,test,OFFmed_OFFstim,20251211_123115,2025-12-11 12:31:21.378854,1,0,reading,POSTREAD_FIX1_OFF,241,2025-12-11 12:31:51.958373,30.570639,0.033394,,,,,,keyboard,after digit#1,"{""note"":""after digit#1"",""pd_used"":0}",2,0.008333,120.000000,1
Sergio_G01_CNS-LLF5HT7Y0,test,OFFmed_OFFstim,20251211_123115,2025-12-11 12:31:21.378854,1,0,reading,READ_DIGIT2_ON,202,2025-12-11 12:31:51.987241,30.604032,6.045051,,8,,,,keyboard,digit#2 shown,"{""value"":8,""note"":""digit#2 shown"",""pd_used"":0}",2,0.008333,120.000000,1
Sergio_G01_CNS-LLF5HT7Y0,test,OFFmed_OFFstim,20251211_123115,2025-12-11 12:31:21.378854,1,0,reading,PROBE_COUNT_OK_2,71,2025-12-11 12:31:58.426138,36.649083,0.417308,12.251495,slot#2,NaN,,,keyboard,probe_digit#2,"{""value"":""slot#2"",""entered"":null,""rt"":12.251495300006354,""note"":""probe_digit#2""}",2,0.008333,120.000000,1
Sergio_G01_CNS-LLF5HT7Y0,test,OFFmed_OFFstim,20251211_123115,2025-12-11 12:31:21.378854,1,0,reading,READ_DIGIT2_OFF,212,2025-12-11 12:31:58.452976,37.066392,0.000000,,8,,,,keyboard,digit#2 off,"{""value"":8,""note"":""digit#2 off"",""pd_used"":0}",2,0.008333,120.000000,1
Sergio_G01_CNS-LLF5HT7Y0,test,OFFmed_OFFstim,20251211_123115,2025-12-11 12:31:21.378854,1,0,reading,POSTREAD_FIX2_ON,232,2025-12-11 12:31:58.455420,37.066392,1.677533,,,,,,keyboard,after digit#2,"{""note"":""after digit#2""}",2,0.008333,120.000000,1
Sergio_G01_CNS-LLF5HT7Y0,test,OFFmed_OFFstim,20251211_123115,2025-12-11 12:31:21.378854,1,0,reading,POSTREAD_FIX2_OFF,242,2025-12-11 12:32:00.128685,38.743924,0.026266,,,,,,keyboard,after digit#2,"{""note"":""after digit#2"",""pd_used"":0}",2,0.008333,120.000000,1
Sergio_G01_CNS-LLF5HT7Y0,test,OFFmed_OFFstim,20251211_123115,2025-12-11 12:31:21.378854,1,0,reading,READ_DIGIT3_ON,203,2025-12-11 12:32:00.154138,38.770190,0.811415,,2,,,,keyboard,digit#3 shown,"{""value"":2,""note"":""digit#3 shown"",""pd_used"":0}",2,0.008333,120.000000,1
Sergio_G01_CNS-LLF5HT7Y0,test,OFFmed_OFFstim,20251211_123115,2025-12-11 12:31:21.378854,1,0,reading,PROBE_COUNT_OK_3,71,2025-12-11 12:32:01.297206,39.581605,0.355672,15.184017,slot#3,NaN,,,keyboard,probe_digit#3,"{""value"":""slot#3"",""entered"":null,""rt"":15.184017100022174,""note"":""probe_digit#3""}",2,0.008333,120.000000,1
Sergio_G01_CNS-LLF5HT7Y0,test,OFFmed_OFFstim,20251211_123115,2025-12-11 12:31:21.378854,1,0,reading,READ_DIGIT3_OFF,213,2025-12-11 12:32:01.323008,39.937277,0.000000,,2,,,,keyboard,digit#3 off,"{""value"":2,""note"":""digit#3 off"",""pd_used"":0}",2,0.008333,120.000000,1
Sergio_G01_CNS-LLF5HT7Y0,test,OFFmed_OFFstim,20251211_123115,2025-12-11 12:31:21.378854,1,0,reading,POSTREAD_FIX3_ON,233,2025-12-11 12:32:01.324263,39.937277,1.814927,,,,,,keyboard,after digit#3,"{""note"":""after digit#3""}",2,0.008333,120.000000,1
Sergio_G01_CNS-LLF5HT7Y0,test,OFFmed_OFFstim,20251211_123115,2025-12-11 12:31:21.378854,1,0,reading,POSTREAD_FIX3_OFF,243,2025-12-11 12:32:03.136553,41.752204,0.025686,,,,,,keyboard,after digit#3,"{""note"":""after digit#3"",""pd_used"":0}",2,0.008333,120.000000,1
Sergio_G01_CNS-LLF5HT7Y0,test,OFFmed_OFFstim,20251211_123115,2025-12-11 12:31:21.378854,1,0,reading,READ_DIGIT4_ON,204,2025-12-11 12:32:03.162623,41.777890,0.561719,,8,,,,keyboard,digit#4 shown,"{""value"":8,""note"":""digit#4 shown"",""pd_used"":0}",2,0.008333,120.000000,1
Sergio_G01_CNS-LLF5HT7Y0,test,OFFmed_OFFstim,20251211_123115,2025-12-11 12:31:21.378854,1,0,reading,PROBE_COUNT_OK_4,71,2025-12-11 12:32:04.093336,42.339609,0.396093,17.942021,slot#4,NaN,,,keyboard,probe_digit#4,"{""value"":""slot#4"",""entered"":null,""rt"":17.942020700022113,""note"":""probe_digit#4""}",2,0.008333,120.000000,1
Sergio_G01_CNS-LLF5HT7Y0,test,OFFmed_OFFstim,20251211_123115,2025-12-11 12:31:21.378854,1,0,reading,READ_DIGIT4_OFF,214,2025-12-11 12:32:04.120501,42.735702,0.000000,,8,,,,keyboard,digit#4 off,"{""value"":8,""note"":""digit#4 off"",""pd_used"":0}",2,0.008333,120.000000,1
Sergio_G01_CNS-LLF5HT7Y0,test,OFFmed_OFFstim,20251211_123115,2025-12-11 12:31:21.378854,1,0,reading,POSTREAD_FIX4_ON,234,2025-12-11 12:32:04.122412,42.735702,1.977757,,,,,,keyboard,after digit#4,"{""note"":""after digit#4""}",2,0.008333,120.000000,1
Sergio_G01_CNS-LLF5HT7Y0,test,OFFmed_OFFstim,20251211_123115,2025-12-11 12:31:21.378854,1,0,reading,POSTREAD_FIX4_OFF,244,2025-12-11 12:32:06.098107,44.713459,0.028809,,,,,,keyboard,after digit#4,"{""note"":""after digit#4"",""pd_used"":0}",2,0.008333,120.000000,1
Sergio_G01_CNS-LLF5HT7Y0,test,OFFmed_OFFstim,20251211_123115,2025-12-11 12:31:21.378854,1,0,reading,READ_DIGIT5_ON,205,2025-12-11 12:32:06.127052,44.742268,0.620443,,7,,,,keyboard,digit#5 shown,"{""value"":7,""note"":""digit#5 shown"",""pd_used"":0}",2,0.008333,120.000000,1
Sergio_G01_CNS-LLF5HT7Y0,test,OFFmed_OFFstim,20251211_123115,2025-12-11 12:31:21.378854,1,0,reading,PROBE_COUNT_OK_5,71,2025-12-11 12:32:07.124060,45.362711,0.401432,20.965123,slot#5,NaN,,,keyboard,probe_digit#5,"{""value"":""slot#5"",""entered"":null,""rt"":20.965122699999483,""note"":""probe_digit#5""}",2,0.008333,120.000000,1
Sergio_G01_CNS-LLF5HT7Y0,test,OFFmed_OFFstim,20251211_123115,2025-12-11 12:31:21.378854,1,0,reading,READ_DIGIT5_OFF,215,2025-12-11 12:32:07.149325,45.764142,0.000000,,7,,,,keyboard,digit#5 off,"{""value"":7,""note"":""digit#5 off"",""pd_used"":0}",2,0.008333,120.000000,1
Sergio_G01_CNS-LLF5HT7Y0,test,OFFmed_OFFstim,20251211_123115,2025-12-11 12:31:21.378854,1,0,reading,POSTREAD_FIX5_ON,235,2025-12-11 12:32:07.150405,45.764142,2.001970,,,,,,keyboard,after digit#5,"{""note"":""after digit#5""}",2,0.008333,120.000000,1
Sergio_G01_CNS-LLF5HT7Y0,test,OFFmed_OFFstim,20251211_123115,2025-12-11 12:31:21.378854,1,0,reading,POSTREAD_FIX5_OFF,245,2025-12-11 12:32:09.150762,47.766112,0.025454,,,,,,keyboard,after digit#5,"{""note"":""after digit#5"",""pd_used"":0}",2,0.008333,120.000000,1
Sergio_G01_CNS-LLF5HT7Y0,test,OFFmed_OFFstim,20251211_123115,2025-12-11 12:31:21.378854,1,0,reading,READ_DIGIT6_ON,206,2025-12-11 12:32:09.174016,47.791566,0.576554,,5,,,,keyboard,digit#6 shown,"{""value"":5,""note"":""digit#6 shown"",""pd_used"":0}",2,0.008333,120.000000,1
Sergio_G01_CNS-LLF5HT7Y0,test,OFFmed_OFFstim,20251211_123115,2025-12-11 12:31:21.378854,1,0,reading,PROBE_COUNT_OK_6,71,2025-12-11 12:32:10.199840,48.368120,0.470796,23.970532,slot#6,NaN,,,keyboard,probe_digit#6,"{""value"":""slot#6"",""entered"":null,""rt"":23.970531800005119,""note"":""probe_digit#6""}",2,0.008333,120.000000,1
Sergio_G01_CNS-LLF5HT7Y0,test,OFFmed_OFFstim,20251211_123115,2025-12-11 12:31:21.378854,1,0,reading,READ_DIGIT6_OFF,216,2025-12-11 12:32:10.225392,48.838916,0.000000,,5,,,,keyboard,digit#6 off,"{""value"":5,""note"":""digit#6 off"",""pd_used"":0}",2,0.008333,120.000000,1
Sergio_G01_CNS-LLF5HT7Y0,test,OFFmed_OFFstim,20251211_123115,2025-12-11 12:31:21.378854,1,0,reading,POSTREAD_FIX6_ON,236,2025-12-11 12:32:10.226774,48.838916,1.836825,,,,,,keyboard,after digit#6,"{""note"":""after digit#6""}",2,0.008333,120.000000,1
Sergio_G01_CNS-LLF5HT7Y0,test,OFFmed_OFFstim,20251211_123115,2025-12-11 12:31:21.378854,1,0,reading,POSTREAD_FIX6_OFF,246,2025-12-11 12:32:12.060531,50.675741,0.027355,,,,,,keyboard,after digit#6,"{""note"":""after digit#6"",""pd_used"":0}",2,0.008333,120.000000,1
Sergio_G01_CNS-LLF5HT7Y0,test,OFFmed_OFFstim,20251211_123115,2025-12-11 12:31:21.378854,1,0,reading,READ_DIGIT7_ON,207,2025-12-11 12:32:12.086690,50.703095,3.768476,,8,,,,keyboard,digit#7 shown,"{""value"":8,""note"":""digit#7 shown"",""pd_used"":0}",2,0.008333,120.000000,1
Sergio_G01_CNS-LLF5HT7Y0,test,OFFmed_OFFstim,20251211_123115,2025-12-11 12:31:21.378854,1,0,reading,PROBE_COUNT_OK_7,71,2025-12-11 12:32:16.242317,54.471571,0.409334,30.073983,slot#7,NaN,,,keyboard,probe_digit#7,"{""value"":""slot#7"",""entered"":null,""rt"":30.073982800007798,""note"":""probe_digit#7""}",2,0.008333,120.000000,1
Sergio_G01_CNS-LLF5HT7Y0,test,OFFmed_OFFstim,20251211_123115,2025-12-11 12:31:21.378854,1,0,reading,READ_DIGIT7_OFF,217,2025-12-11 12:32:16.269281,54.880904,0.000000,,8,,,,keyboard,digit#7 off,"{""value"":8,""note"":""digit#7 off"",""pd_used"":0}",2,0.008333,120.000000,1
Sergio_G01_CNS-LLF5HT7Y0,test,OFFmed_OFFstim,20251211_123115,2025-12-11 12:31:21.378854,1,0,reading,POSTREAD_FIX7_ON,237,2025-12-11 12:32:16.271096,54.880904,1.968636,,,,,,keyboard,after digit#7,"{""note"":""after digit#7""}",2,0.008333,120.000000,1
Sergio_G01_CNS-LLF5HT7Y0,test,OFFmed_OFFstim,20251211_123115,2025-12-11 12:31:21.378854,1,0,reading,POSTREAD_FIX7_OFF,247,2025-12-11 12:32:18.234929,56.849540,0.028090,,,,,,keyboard,after digit#7,"{""note"":""after digit#7"",""pd_used"":0}",2,0.008333,120.000000,1
Sergio_G01_CNS-LLF5HT7Y0,test,OFFmed_OFFstim,20251211_123115,2025-12-11 12:31:21.378854,1,0,reading,READ_DIGIT8_ON,208,2025-12-11 12:32:18.261799,56.877631,2.291897,,2,,,,keyboard,digit#8 shown,"{""value"":2,""note"":""digit#8 shown"",""pd_used"":0}",2,0.008333,120.000000,1
Sergio_G01_CNS-LLF5HT7Y0,test,OFFmed_OFFstim,20251211_123115,2025-12-11 12:31:21.378854,1,0,reading,PROBE_COUNT_OK_8,71,2025-12-11 12:32:20.918170,59.169528,0.387460,34.771940,slot#8,NaN,,,keyboard,probe_digit#8,"{""value"":""slot#8"",""entered"":null,""rt"":34.771939800004475,""note"":""probe_digit#8""}",2,0.008333,120.000000,1
Sergio_G01_CNS-LLF5HT7Y0,test,OFFmed_OFFstim,20251211_123115,2025-12-11 12:31:21.378854,1,0,reading,READ_DIGIT8_OFF,218,2025-12-11 12:32:20.944041,59.556988,0.000000,,2,,,,keyboard,digit#8 off,"{""value"":2,""note"":""digit#8 off"",""pd_used"":0}",2,0.008333,120.000000,1
Sergio_G01_CNS-LLF5HT7Y0,test,OFFmed_OFFstim,20251211_123115,2025-12-11 12:31:21.378854,1,0,reading,POSTREAD_FIX8_ON,238,2025-12-11 12:32:20.944807,59.556988,1.730559,,,,,,keyboard,after digit#8,"{""note"":""after digit#8""}",2,0.008333,120.000000,1
Sergio_G01_CNS-LLF5HT7Y0,test,OFFmed_OFFstim,20251211_123115,2025-12-11 12:31:21.378854,1,0,reading,POSTREAD_FIX8_OFF,248,2025-12-11 12:32:22.672835,61.287547,0.030244,,,,,,keyboard,after digit#8,"{""note"":""after digit#8"",""pd_used"":0}",2,0.008333,120.000000,1
Sergio_G01_CNS-LLF5HT7Y0,test,OFFmed_OFFstim,20251211_123115,2025-12-11 12:31:21.378854,1,0,reading,READ_DIGIT9_ON,209,2025-12-11 12:32:22.702570,61.317791,0.853766,,5,,,,keyboard,digit#9 shown,"{""value"":5,""note"":""digit#9 shown"",""pd_used"":0}",2,0.008333,120.000000,1
Sergio_G01_CNS-LLF5HT7Y0,test,OFFmed_OFFstim,20251211_123115,2025-12-11 12:31:21.378854,1,0,reading,PROBE_COUNT_OK_9,71,2025-12-11 12:32:24.067170,62.171557,0.536348,37.773969,slot#9,NaN,,,keyboard,probe_digit#9,"{""value"":""slot#9"",""entered"":null,""rt"":37.773968599998625,""note"":""probe_digit#9""}",2,0.008333,120.000000,1
Sergio_G01_CNS-LLF5HT7Y0,test,OFFmed_OFFstim,20251211_123115,2025-12-11 12:31:21.378854,1,0,reading,READ_DIGIT9_OFF,219,2025-12-11 12:32:24.095292,62.707905,0.000000,,5,,,,keyboard,digit#9 off,"{""value"":5,""note"":""digit#9 off"",""pd_used"":0}",2,0.008333,120.000000,1
Sergio_G01_CNS-LLF5HT7Y0,test,OFFmed_OFFstim,20251211_123115,2025-12-11 12:31:21.378854,1,0,reading,POSTREAD_FIX9_ON,239,2025-12-11 12:32:24.097108,62.707905,1.800073,,,,,,keyboard,after digit#9,"{""note"":""after digit#9""}",2,0.008333,120.000000,1
Sergio_G01_CNS-LLF5HT7Y0,test,OFFmed_OFFstim,20251211_123115,2025-12-11 12:31:21.378854,1,0,reading,POSTREAD_FIX9_OFF,249,2025-12-11 12:32:25.893177,64.507978,0.024465,,,,,,keyboard,after digit#9,"{""note"":""after digit#9"",""pd_used"":0}",2,0.008333,120.000000,1
Sergio_G01_CNS-LLF5HT7Y0,test,OFFmed_OFFstim,20251211_123115,2025-12-11 12:31:21.378854,1,0,reading,READ_DIGIT10_ON,210,2025-12-11 12:32:25.916722,64.532443,0.600139,,1,,,,keyboard,digit#10 shown,"{""value"":1,""note"":""digit#10 shown"",""pd_used"":0}",2,0.008333,120.000000,1
Sergio_G01_CNS-LLF5HT7Y0,test,OFFmed_OFFstim,20251211_123115,2025-12-11 12:31:21.378854,1,0,reading,PROBE_COUNT_OK_10,71,2025-12-11 12:32:26.967373,65.132582,0.475491,40.734994,slot#10,NaN,,,keyboard,probe_digit#10,"{""value"":""slot#10"",""entered"":null,""rt"":40.73499370002537,""note"":""probe_digit#10""}",2,0.008333,120.000000,1
Sergio_G01_CNS-LLF5HT7Y0,test,OFFmed_OFFstim,20251211_123115,2025-12-11 12:31:21.378854,1,0,reading,READ_DIGIT10_OFF,220,2025-12-11 12:32:26.994803,65.608073,0.000000,,1,,,,keyboard,digit#10 off,"{""value"":1,""note"":""digit#10 off"",""pd_used"":0}",2,0.008333,120.000000,1
Sergio_G01_CNS-LLF5HT7Y0,test,OFFmed_OFFstim,20251211_123115,2025-12-11 12:31:21.378854,1,0,reading,POSTREAD_FIX10_ON,240,2025-12-11 12:32:26.996244,65.608073,3.068428,,,,,,keyboard,after digit#10,"{""note"":""after digit#10""}",2,0.008333,120.000000,1
Sergio_G01_CNS-LLF5HT7Y0,test,OFFmed_OFFstim,20251211_123115,2025-12-11 12:31:21.378854,1,0,reading,POSTREAD_FIX10_OFF,250,2025-12-11 12:32:30.062490,68.676501,0.017585,,,,,,keyboard,after digit#10,"{""note"":""after digit#10"",""pd_used"":0}",2,0.008333,120.000000,1
Sergio_G01_CNS-LLF5HT7Y0,test,OFFmed_OFFstim,20251211_123115,2025-12-11 12:31:21.378854,1,0,reading,CONTROL_END,24,2025-12-11 12:32:30.070718,68.694085,0.024793,,,,,,keyboard,,{},2,0.008333,120.000000,1
Sergio_G01_CNS-LLF5HT7Y0,test,OFFmed_OFFstim,20251211_123115,2025-12-11 12:31:21.378854,1,0,reading,START_PAGE_ON,4,2025-12-11 12:32:30.104144,68.718878,0.021736,,,,,,keyboard,,"{""pd_used"":0}",2,0.008333,120.000000,1
Sergio_G01_CNS-LLF5HT7Y0,test,OFFmed_OFFstim,20251211_123115,2025-12-11 12:31:21.378854,1,0,reading,START_PAGE_ON,4,2025-12-11 12:32:30.104144,68.718878,1.569665,,,,,,keyboard,,"{""pd_used"":0}",2,0.008333,120.000000,1
Sergio_G01_CNS-LLF5HT7Y0,test,OFFmed_OFFstim,20251211_123115,2025-12-11 12:31:21.378854,1,0,reading,START_PAGE_ON,4,2025-12-11 12:32:30.104144,68.718878,1.890668,,,,,,keyboard,,"{""pd_used"":0}",2,0.008333,120.000000,1
Sergio_G01_CNS-LLF5HT7Y0,test,OFFmed_OFFstim,20251211_123115,2025-12-11 12:31:21.378854,1,0,reading,SESSION_START,1,2025-12-11 12:32:31.986402,70.609546,0.023504,,,,,,keyboard,,{},2,0.008333,120.000000,1
Sergio_G01_CNS-LLF5HT7Y0,test,OFFmed_OFFstim,20251211_123115,2025-12-11 12:31:21.378854,1,1,reading,TRIAL_CHANGE,22,2025-12-11 12:32:32.009880,70.633050,0.002017,,,,,,keyboard,trial transition,"{""note"":""trial transition""}",2,0.008333,120.000000,1
Sergio_G01_CNS-LLF5HT7Y0,test,OFFmed_OFFstim,20251211_123115,2025-12-11 12:31:21.378854,1,1,reading,TRIAL_START,20,2025-12-11 12:32:32.011637,70.635067,0.025947,,,,,,keyboard,,{},2,0.008333,120.000000,1
Sergio_G01_CNS-LLF5HT7Y0,test,OFFmed_OFFstim,20251211_123115,2025-12-11 12:31:21.378854,1,1,fix1,FIX1_ON,30,2025-12-11 12:32:32.045880,70.661014,3.413443,,,,,,keyboard,,"{""pd_used"":0}",2,0.008333,120.000000,1
Sergio_G01_CNS-LLF5HT7Y0,test,OFFmed_OFFstim,20251211_123115,2025-12-11 12:31:21.378854,1,1,fix1,FIX1_OFF,31,2025-12-11 12:32:35.460730,74.074457,0.021578,,,,,,keyboard,,"{""pd_used"":0}",2,0.008333,120.000000,1
Sergio_G01_CNS-LLF5HT7Y0,test,OFFmed_OFFstim,20251211_123115,2025-12-11 12:31:21.378854,1,1,digit,DIGIT1_ON,141,2025-12-11 12:32:35.480833,74.096035,0.520208,,4,,,,keyboard,digit#1 shown,"{""value"":4,""note"":""digit#1 shown"",""pd_used"":1}",2,0.008333,120.000000,1
Sergio_G01_CNS-LLF5HT7Y0,test,OFFmed_OFFstim,20251211_123115,2025-12-11 12:31:21.378854,1,1,digit,DIGIT1_OFF,146,2025-12-11 12:32:36.000980,74.616243,0.000000,,4,,,,keyboard,digit#1 off,"{""value"":4,""note"":""digit#1 off"",""pd_used"":0}",2,0.008333,120.000000,1
Sergio_G01_CNS-LLF5HT7Y0,test,OFFmed_OFFstim,20251211_123115,2025-12-11 12:31:21.378854,1,1,digit,POSTDIG_FIX1_ON,151,2025-12-11 12:32:36.001759,74.616243,1.907237,,,,,,keyboard,after digit#1,"{""note"":""after digit#1""}",2,0.008333,120.000000,1
Sergio_G01_CNS-LLF5HT7Y0,test,OFFmed_OFFstim,20251211_123115,2025-12-11 12:31:21.378854,1,1,digit,POSTDIG_FIX1_OFF,156,2025-12-11 12:32:37.908853,76.523481,0.019326,,,,,,keyboard,after digit#1,"{""note"":""after digit#1"",""pd_used"":0}",2,0.008333,120.000000,1
Sergio_G01_CNS-LLF5HT7Y0,test,OFFmed_OFFstim,20251211_123115,2025-12-11 12:31:21.378854,1,1,digit,DIGIT2_ON,142,2025-12-11 12:32:37.927623,76.542807,0.520065,,7,,,,keyboard,digit#2 shown,"{""value"":7,""note"":""digit#2 shown"",""pd_used"":1}",2,0.008333,120.000000,1
Sergio_G01_CNS-LLF5HT7Y0,test,OFFmed_OFFstim,20251211_123115,2025-12-11 12:31:21.378854,1,1,digit,DIGIT2_OFF,147,2025-12-11 12:32:38.447435,77.062872,0.000000,,7,,,,keyboard,digit#2 off,"{""value"":7,""note"":""digit#2 off"",""pd_used"":0}",2,0.008333,120.000000,1
Sergio_G01_CNS-LLF5HT7Y0,test,OFFmed_OFFstim,20251211_123115,2025-12-11 12:31:21.378854,1,1,digit,POSTDIG_FIX2_ON,152,2025-12-11 12:32:38.449269,77.062872,1.866502,,,,,,keyboard,after digit#2,"{""note"":""after digit#2""}",2,0.008333,120.000000,1
Sergio_G01_CNS-LLF5HT7Y0,test,OFFmed_OFFstim,20251211_123115,2025-12-11 12:31:21.378854,1,1,digit,POSTDIG_FIX2_OFF,157,2025-12-11 12:32:40.315631,78.929375,0.020748,,,,,,keyboard,after digit#2,"{""note"":""after digit#2"",""pd_used"":0}",2,0.008333,120.000000,1
Sergio_G01_CNS-LLF5HT7Y0,test,OFFmed_OFFstim,20251211_123115,2025-12-11 12:31:21.378854,1,1,digit,DIGIT3_ON,143,2025-12-11 12:32:40.333847,78.950122,0.518292,,3,,,,keyboard,digit#3 shown,"{""value"":3,""note"":""digit#3 shown"",""pd_used"":1}",2,0.008333,120.000000,1
Sergio_G01_CNS-LLF5HT7Y0,test,OFFmed_OFFstim,20251211_123115,2025-12-11 12:31:21.378854,1,1,digit,DIGIT3_OFF,148,2025-12-11 12:32:40.853343,79.468414,0.000000,,3,,,,keyboard,digit#3 off,"{""value"":3,""note"":""digit#3 off"",""pd_used"":0}",2,0.008333,120.000000,1
Sergio_G01_CNS-LLF5HT7Y0,test,OFFmed_OFFstim,20251211_123115,2025-12-11 12:31:21.378854,1,1,digit,POSTDIG_FIX3_ON,153,2025-12-11 12:32:40.855284,79.468414,1.998942,,,,,,keyboard,after digit#3,"{""note"":""after digit#3""}",2,0.008333,120.000000,1
Sergio_G01_CNS-LLF5HT7Y0,test,OFFmed_OFFstim,20251211_123115,2025-12-11 12:31:21.378854,1,1,digit,POSTDIG_FIX3_OFF,158,2025-12-11 12:32:42.852478,81.467355,0.019149,,,,,,keyboard,after digit#3,"{""note"":""after digit#3"",""pd_used"":0}",2,0.008333,120.000000,1
Sergio_G01_CNS-LLF5HT7Y0,test,OFFmed_OFFstim,20251211_123115,2025-12-11 12:31:21.378854,1,1,digit,DIGIT4_ON,144,2025-12-11 12:32:42.869528,81.486504,0.517989,,2,,,,keyboard,digit#4 shown,"{""value"":2,""note"":""digit#4 shown"",""pd_used"":1}",2,0.008333,120.000000,1
Sergio_G01_CNS-LLF5HT7Y0,test,OFFmed_OFFstim,20251211_123115,2025-12-11 12:31:21.378854,1,1,digit,DIGIT4_OFF,149,2025-12-11 12:32:43.389087,82.004494,0.000000,,2,,,,keyboard,digit#4 off,"{""value"":2,""note"":""digit#4 off"",""pd_used"":0}",2,0.008333,120.000000,1
Sergio_G01_CNS-LLF5HT7Y0,test,OFFmed_OFFstim,20251211_123115,2025-12-11 12:31:21.378854,1,1,digit,POSTDIG_FIX4_ON,154,2025-12-11 12:32:43.391081,82.004494,1.981283,,,,,,keyboard,after digit#4,"{""note"":""after digit#4""}",2,0.008333,120.000000,1
Sergio_G01_CNS-LLF5HT7Y0,test,OFFmed_OFFstim,20251211_123115,2025-12-11 12:31:21.378854,1,1,digit,POSTDIG_FIX4_OFF,159,2025-12-11 12:32:45.371081,83.985777,0.021446,,,,,,keyboard,after digit#4,"{""note"":""after digit#4"",""pd_used"":0}",2,0.008333,120.000000,1
Sergio_G01_CNS-LLF5HT7Y0,test,OFFmed_OFFstim,20251211_123115,2025-12-11 12:31:21.378854,1,1,digit,DIGIT5_ON,145,2025-12-11 12:32:45.391266,84.007223,0.520600,,0,,,,keyboard,digit#5 shown,"{""value"":0,""note"":""digit#5 shown"",""pd_used"":1}",2,0.008333,120.000000,1
Sergio_G01_CNS-LLF5HT7Y0,test,OFFmed_OFFstim,20251211_123115,2025-12-11 12:31:21.378854,1,1,digit,DIGIT5_OFF,150,2025-12-11 12:32:45.912810,84.527823,0.000000,,0,,,,keyboard,digit#5 off,"{""value"":0,""note"":""digit#5 off"",""pd_used"":0}",2,0.008333,120.000000,1
Sergio_G01_CNS-LLF5HT7Y0,test,OFFmed_OFFstim,20251211_123115,2025-12-11 12:31:21.378854,1,1,digit,POSTDIG_FIX5_ON,155,2025-12-11 12:32:45.915457,84.527823,3.434818,,,,,,keyboard,after digit#5,"{""note"":""after digit#5""}",2,0.008333,120.000000,1
Sergio_G01_CNS-LLF5HT7Y0,test,OFFmed_OFFstim,20251211_123115,2025-12-11 12:31:21.378854,1,1,digit,POSTDIG_FIX5_OFF,160,2025-12-11 12:32:49.347119,87.962642,0.026176,,,,,,keyboard,after digit#5,"{""note"":""after digit#5"",""pd_used"":0}",2,0.008333,120.000000,1
Sergio_G01_CNS-LLF5HT7Y0,test,OFFmed_OFFstim,20251211_123115,2025-12-11 12:31:21.378854,1,1,distractor,DISTRACTOR_ON,50,2025-12-11 12:32:49.373575,87.988818,2.544923,,5+1=6,,,,keyboard,,"{""value"":""5+1=6"",""isCorrectTruth"":true,""trueSum"":6,""pd_used"":1}",2,0.008333,120.000000,1
Sergio_G01_CNS-LLF5HT7Y0,test,OFFmed_OFFstim,20251211_123115,2025-12-11 12:31:21.378854,1,1,distractor,DISTRACTOR_ANS,51,2025-12-11 12:32:52.349939,90.533741,0.000000,2.544923,5+1=6,F,0,,keyboard,key= (False),"{""value"":""5+1=6"",""entered"":""F"",""rt"":2.544922899978701,""correct"":0,""note"":""key= (False)"",""truth"":true,""trueSum"":6,""shownSum"":6,""a"":5,""b"":1}",2,0.008333,120.000000,1
Sergio_G01_CNS-LLF5HT7Y0,test,OFFmed_OFFstim,20251211_123115,2025-12-11 12:31:21.378854,1,1,distractor,ANS_WRONG,101,2025-12-11 12:32:52.362038,90.533741,0.460509,,,,,,keyboard,,{},2,0.008333,120.000000,1
Sergio_G01_CNS-LLF5HT7Y0,test,OFFmed_OFFstim,20251211_123115,2025-12-11 12:31:21.378854,1,1,distractor,DISTRACTOR_OFF,52,2025-12-11 12:32:52.378912,90.994250,0.000000,,,,,,keyboard,,"{""pd_used"":0}",2,0.008333,120.000000,1
Sergio_G01_CNS-LLF5HT7Y0,test,OFFmed_OFFstim,20251211_123115,2025-12-11 12:31:21.378854,1,1,distractor,FIX2_ON,60,2025-12-11 12:32:52.380616,90.994250,3.098510,,,,,,keyboard,immediate after response,"{""note"":""immediate after response""}",2,0.008333,120.000000,1
Sergio_G01_CNS-LLF5HT7Y0,test,OFFmed_OFFstim,20251211_123115,2025-12-11 12:31:21.378854,1,1,fix2,FIX2_OFF,61,2025-12-11 12:32:55.477751,94.092759,0.021508,,,,,,keyboard,,"{""pd_used"":0}",2,0.008333,120.000000,1
Sergio_G01_CNS-LLF5HT7Y0,test,OFFmed_OFFstim,20251211_123115,2025-12-11 12:31:21.378854,1,1,probe,DIGIT_RECALL_LINE_1,161,2025-12-11 12:32:55.498718,94.114267,7.922037,,1,,,,keyboard,first recall question,"{""value"":1,""note"":""first recall question"",""pd_used"":1}",2,0.008333,120.000000,1
Sergio_G01_CNS-LLF5HT7Y0,test,OFFmed_OFFstim,20251211_123115,2025-12-11 12:31:21.378854,1,1,probe,PROBE_DIGIT_OK_1,71,2025-12-11 12:33:03.830833,102.036304,0.433094,7.933222,slot#1,NaN,,,keyboard,probe_digit#1,"{""value"":""slot#1"",""entered"":null,""rt"":7.9332221999939065,""note"":""probe_digit#1""}",2,0.008333,120.000000,1
Sergio_G01_CNS-LLF5HT7Y0,test,OFFmed_OFFstim,20251211_123115,2025-12-11 12:31:21.378854,1,1,probe,DIGIT1_OFF,146,2025-12-11 12:33:03.857321,102.469398,0.000000,,0,,,,keyboard,digit#1 off,"{""value"":0,""note"":""digit#1 off"",""pd_used"":0}",2,0.008333,120.000000,1
Sergio_G01_CNS-LLF5HT7Y0,test,OFFmed_OFFstim,20251211_123115,2025-12-11 12:31:21.378854,1,1,probe,POSTDIG_FIX1_ON,151,2025-12-11 12:33:03.859097,102.469398,1.710507,,,,,,keyboard,after digit#1,"{""note"":""after digit#1""}",2,0.008333,120.000000,1
Sergio_G01_CNS-LLF5HT7Y0,test,OFFmed_OFFstim,20251211_123115,2025-12-11 12:31:21.378854,1,1,probe,POSTDIG_FIX1_OFF,156,2025-12-11 12:33:05.564486,104.179906,0.025541,,,,,,keyboard,after digit#1,"{""note"":""after digit#1"",""pd_used"":0}",2,0.008333,120.000000,1
Sergio_G01_CNS-LLF5HT7Y0,test,OFFmed_OFFstim,20251211_123115,2025-12-11 12:31:21.378854,1,1,probe,DIGIT_RECALL_LINE_2,162,2025-12-11 12:33:05.589693,104.205447,0.607088,,2,,,,keyboard,next recall question,"{""value"":2,""note"":""next recall question"",""pd_used"":1}",2,0.008333,120.000000,1
Sergio_G01_CNS-LLF5HT7Y0,test,OFFmed_OFFstim,20251211_123115,2025-12-11 12:31:21.378854,1,1,probe,PROBE_DIGIT_OK_2,71,2025-12-11 12:33:06.627284,104.812535,0.456326,10.709453,slot#2,NaN,,,keyboard,probe_digit#2,"{""value"":""slot#2"",""entered"":null,""rt"":10.709453499992378,""note"":""probe_digit#2""}",2,0.008333,120.000000,1
Sergio_G01_CNS-LLF5HT7Y0,test,OFFmed_OFFstim,20251211_123115,2025-12-11 12:31:21.378854,1,1,probe,DIGIT2_OFF,147,2025-12-11 12:33:06.653332,105.268861,0.000000,,0,,,,keyboard,digit#2 off,"{""value"":0,""note"":""digit#2 off"",""pd_used"":0}",2,0.008333,120.000000,1
Sergio_G01_CNS-LLF5HT7Y0,test,OFFmed_OFFstim,20251211_123115,2025-12-11 12:31:21.378854,1,1,probe,POSTDIG_FIX2_ON,152,2025-12-11 12:33:06.654082,105.268861,1.709344,,,,,,keyboard,after digit#2,"{""note"":""after digit#2""}",2,0.008333,120.000000,1
Sergio_G01_CNS-LLF5HT7Y0,test,OFFmed_OFFstim,20251211_123115,2025-12-11 12:31:21.378854,1,1,probe,POSTDIG_FIX2_OFF,157,2025-12-11 12:33:08.362954,106.978205,0.025649,,,,,,keyboard,after digit#2,"{""note"":""after digit#2"",""pd_used"":0}",2,0.008333,120.000000,1
Sergio_G01_CNS-LLF5HT7Y0,test,OFFmed_OFFstim,20251211_123115,2025-12-11 12:31:21.378854,1,1,probe,DIGIT_RECALL_LINE_3,163,2025-12-11 12:33:08.388284,107.003853,0.555504,,3,,,,keyboard,next recall question,"{""value"":3,""note"":""next recall question"",""pd_used"":1}",2,0.008333,120.000000,1
Sergio_G01_CNS-LLF5HT7Y0,test,OFFmed_OFFstim,20251211_123115,2025-12-11 12:31:21.378854,1,1,probe,PROBE_DIGIT_OK_3,71,2025-12-11 12:33:09.325480,107.559357,0.407110,13.456275,slot#3,NaN,,,keyboard,probe_digit#3,"{""value"":""slot#3"",""entered"":null,""rt"":13.456275099975755,""note"":""probe_digit#3""}",2,0.008333,120.000000,1
Sergio_G01_CNS-LLF5HT7Y0,test,OFFmed_OFFstim,20251211_123115,2025-12-11 12:31:21.378854,1,1,probe,DIGIT3_OFF,148,2025-12-11 12:33:09.351211,107.966467,0.000000,,0,,,,keyboard,digit#3 off,"{""value"":0,""note"":""digit#3 off"",""pd_used"":0}",2,0.008333,120.000000,1
Sergio_G01_CNS-LLF5HT7Y0,test,OFFmed_OFFstim,20251211_123115,2025-12-11 12:31:21.378854,1,1,probe,POSTDIG_FIX3_ON,153,2025-12-11 12:33:09.351967,107.966467,1.547573,,,,,,keyboard,after digit#3,"{""note"":""after digit#3""}",2,0.008333,120.000000,1
Sergio_G01_CNS-LLF5HT7Y0,test,OFFmed_OFFstim,20251211_123115,2025-12-11 12:31:21.378854,1,1,probe,POSTDIG_FIX3_OFF,158,2025-12-11 12:33:10.899462,109.514040,0.018417,,,,,,keyboard,after digit#3,"{""note"":""after digit#3"",""pd_used"":0}",2,0.008333,120.000000,1
Sergio_G01_CNS-LLF5HT7Y0,test,OFFmed_OFFstim,20251211_123115,2025-12-11 12:31:21.378854,1,1,probe,DIGIT_RECALL_LINE_4,164,2025-12-11 12:33:10.916582,109.532456,2.299442,,4,,,,keyboard,next recall question,"{""value"":4,""note"":""next recall question"",""pd_used"":1}",2,0.008333,120.000000,1
Sergio_G01_CNS-LLF5HT7Y0,test,OFFmed_OFFstim,20251211_123115,2025-12-11 12:31:21.378854,1,1,probe,PROBE_DIGIT_OK_4,71,2025-12-11 12:33:13.600755,111.831899,0.400826,17.728817,slot#4,NaN,,,keyboard,probe_digit#4,"{""value"":""slot#4"",""entered"":null,""rt"":17.728816899994854,""note"":""probe_digit#4""}",2,0.008333,120.000000,1
Sergio_G01_CNS-LLF5HT7Y0,test,OFFmed_OFFstim,20251211_123115,2025-12-11 12:31:21.378854,1,1,probe,DIGIT4_OFF,149,2025-12-11 12:33:13.623745,112.232724,0.000000,,0,,,,keyboard,digit#4 off,"{""value"":0,""note"":""digit#4 off"",""pd_used"":0}",2,0.008333,120.000000,1
Sergio_G01_CNS-LLF5HT7Y0,test,OFFmed_OFFstim,20251211_123115,2025-12-11 12:31:21.378854,1,1,probe,POSTDIG_FIX4_ON,154,2025-12-11 12:33:13.624523,112.232724,1.647622,,,,,,keyboard,after digit#4,"{""note"":""after digit#4""}",2,0.008333,120.000000,1
Sergio_G01_CNS-LLF5HT7Y0,test,OFFmed_OFFstim,20251211_123115,2025-12-11 12:31:21.378854,1,1,probe,POSTDIG_FIX4_OFF,159,2025-12-11 12:33:15.264998,113.880346,0.018566,,,,,,keyboard,after digit#4,"{""note"":""after digit#4"",""pd_used"":0}",2,0.008333,120.000000,1
Sergio_G01_CNS-LLF5HT7Y0,test,OFFmed_OFFstim,20251211_123115,2025-12-11 12:31:21.378854,1,1,probe,DIGIT_RECALL_LINE_5,165,2025-12-11 12:33:15.281708,113.898912,0.601106,,5,,,,keyboard,next recall question,"{""value"":5,""note"":""next recall question"",""pd_used"":1}",2,0.008333,120.000000,1
Sergio_G01_CNS-LLF5HT7Y0,test,OFFmed_OFFstim,20251211_123115,2025-12-11 12:31:21.378854,1,1,probe,PROBE_DIGIT_OK_5,71,2025-12-11 12:33:16.298744,114.500018,0.435002,20.396936,slot#5,NaN,,,keyboard,probe_digit#5,"{""value"":""slot#5"",""entered"":null,""rt"":20.3969360999763,""note"":""probe_digit#5""}",2,0.008333,120.000000,1
Sergio_G01_CNS-LLF5HT7Y0,test,OFFmed_OFFstim,20251211_123115,2025-12-11 12:31:21.378854,1,1,probe,DIGIT5_OFF,150,2025-12-11 12:33:16.326990,114.935020,0.000000,,0,,,,keyboard,digit#5 off,"{""value"":0,""note"":""digit#5 off"",""pd_used"":0}",2,0.008333,120.000000,1
Sergio_G01_CNS-LLF5HT7Y0,test,OFFmed_OFFstim,20251211_123115,2025-12-11 12:31:21.378854,1,1,probe,POSTDIG_FIX5_ON,155,2025-12-11 12:33:16.329462,114.935020,3.203342,,,,,,keyboard,after digit#5,"{""note"":""after digit#5""}",2,0.008333,120.000000,1
Sergio_G01_CNS-LLF5HT7Y0,test,OFFmed_OFFstim,20251211_123115,2025-12-11 12:31:21.378854,1,1,probe,POSTDIG_FIX5_OFF,160,2025-12-11 12:33:19.522862,118.138362,0.016980,,,,,,keyboard,after digit#5,"{""note"":""after digit#5"",""pd_used"":0}",2,0.008333,120.000000,1
Sergio_G01_CNS-LLF5HT7Y0,test,OFFmed_OFFstim,20251211_123115,2025-12-11 12:31:21.378854,1,1,probe,PROBE_DONE,73,2025-12-11 12:33:19.531945,118.155342,0.002068,,,,,,keyboard,probe complete,"{""value"":"""",""note"":""probe complete""}",2,0.008333,120.000000,1
Sergio_G01_CNS-LLF5HT7Y0,test,OFFmed_OFFstim,20251211_123115,2025-12-11 12:31:21.378854,1,1,probe,TRIAL_END,21,2025-12-11 12:33:19.533853,118.157410,0.008866,,,,,,keyboard,,{},2,0.008333,120.000000,1
Sergio_G01_CNS-LLF5HT7Y0,test,OFFmed_OFFstim,20251211_123115,2025-12-11 12:31:21.378854,1,1,probe,BLOCK_END,11,2025-12-11 12:33:19.542888,118.166276,0.221885,,,,,,keyboard,,{},2,0.008333,120.000000,1
Sergio_G01_CNS-LLF5HT7Y0,test,OFFmed_OFFstim,20251211_123115,2025-12-11 12:31:21.378854,1,1,probe,SESSION_END,3,2025-12-11 12:33:19.764497,118.388161,NaN,,,,,,keyboard,,{},2,0.008333,120.000000,1
