file_version,subject,condition,session,task_start_time,block,trial,phase,event_name,event_code,wall_clock,t_rel_sec,duration_to_next,rt,value_shown,entered_value,correct,key_name,device,note,json,screen_index,ifi,refresh_hz,pd_used
Sergio_G01_CNS-LLF5HT7Y0,test,OFFmed_OFFstim,20251211_111528,2025-12-11 11:15:36.314726,1,NaN,,BLOCK_START,10,2025-12-11 11:15:55.701655,19.386744,0.020363,,,,,,keyboard,,{},2,0.008333,120.000000,1
Sergio_G01_CNS-LLF5HT7Y0,test,OFFmed_OFFstim,20251211_111528,2025-12-11 11:15:36.314726,1,0,reading,START_PAGE_ON,4,2025-12-11 11:15:55.729053,19.407107,0.010106,,,,,,keyboard,,"{""pd_used"":0}",2,0.008333,120.000000,1
Sergio_G01_CNS-LLF5HT7Y0,test,OFFmed_OFFstim,20251211_111528,2025-12-11 11:15:36.314726,1,0,reading,START_PAGE_ON,4,2025-12-11 11:15:55.729053,19.407107,0.546714,,,,,,keyboard,,"{""pd_used"":0}",2,0.008333,120.000000,1
Sergio_G01_CNS-LLF5HT7Y0,test,OFFmed_OFFstim,20251211_111528,2025-12-11 11:15:36.314726,1,0,reading,START_PAGE_ON,4,2025-12-11 11:15:55.729053,19.407107,0.882859,,,,,,keyboard,,"{""pd_used"":0}",2,0.008333,120.000000,1
Sergio_G01_CNS-LLF5HT7Y0,test,OFFmed_OFFstim,20251211_111528,2025-12-11 11:15:36.314726,1,0,reading,CONTROL_START,23,2025-12-11 11:15:56.604917,20.289966,0.020382,,,,,,keyboard,,{},2,0.008333,120.000000,1
Sergio_G01_CNS-LLF5HT7Y0,test,OFFmed_OFFstim,20251211_111528,2025-12-11 11:15:36.314726,1,0,reading,READ_DIGIT1_ON,201,2025-12-11 11:15:56.638568,20.310347,1.542241,,5,,,,keyboard,digit#1 shown,"{""value"":5,""note"":""digit#1 shown"",""pd_used"":0}",2,0.008333,120.000000,1
Sergio_G01_CNS-LLF5HT7Y0,test,OFFmed_OFFstim,20251211_111528,2025-12-11 11:15:36.314726,1,0,reading,PROBE_COUNT_OK_1,71,2025-12-11 11:15:58.514421,21.852588,0.363419,2.457755,slot#1,NaN,,,keyboard,probe_digit#1,"{""value"":""slot#1"",""entered"":null,""rt"":2.4577547000080813,""note"":""probe_digit#1""}",2,0.008333,120.000000,1
Sergio_G01_CNS-LLF5HT7Y0,test,OFFmed_OFFstim,20251211_111528,2025-12-11 11:15:36.314726,1,0,reading,READ_DIGIT1_OFF,211,2025-12-11 11:15:58.541508,22.216007,0.000000,,5,,,,keyboard,digit#1 off,"{""value"":5,""note"":""digit#1 off"",""pd_used"":0}",2,0.008333,120.000000,1
Sergio_G01_CNS-LLF5HT7Y0,test,OFFmed_OFFstim,20251211_111528,2025-12-11 11:15:36.314726,1,0,reading,POSTREAD_FIX1_ON,231,2025-12-11 11:15:58.543399,22.216007,1.603878,,,,,,keyboard,after digit#1,"{""note"":""after digit#1""}",2,0.008333,120.000000,1
Sergio_G01_CNS-LLF5HT7Y0,test,OFFmed_OFFstim,20251211_111528,2025-12-11 11:15:36.314726,1,0,reading,POSTREAD_FIX1_OFF,241,2025-12-11 11:16:00.143034,23.819885,0.025682,,,,,,keyboard,after digit#1,"{""note"":""after digit#1"",""pd_used"":0}",2,0.008333,120.000000,1
Sergio_G01_CNS-LLF5HT7Y0,test,OFFmed_OFFstim,20251211_111528,2025-12-11 11:15:36.314726,1,0,reading,READ_DIGIT2_ON,202,2025-12-11 11:16:00.168362,23.845567,0.957032,,7,,,,keyboard,digit#2 shown,"{""value"":7,""note"":""digit#2 shown"",""pd_used"":0}",2,0.008333,120.000000,1
Sergio_G01_CNS-LLF5HT7Y0,test,OFFmed_OFFstim,20251211_111528,2025-12-11 11:15:36.314726,1,0,reading,PROBE_COUNT_OK_2,71,2025-12-11 11:16:01.944328,24.802599,0.844675,5.407766,slot#2,NaN,,,keyboard,probe_digit#2,"{""value"":""slot#2"",""entered"":null,""rt"":5.4077656999870669,""note"":""probe_digit#2""}",2,0.008333,120.000000,1
Sergio_G01_CNS-LLF5HT7Y0,test,OFFmed_OFFstim,20251211_111528,2025-12-11 11:15:36.314726,1,0,reading,READ_DIGIT2_OFF,212,2025-12-11 11:16:01.970699,25.647274,0.000000,,7,,,,keyboard,digit#2 off,"{""value"":7,""note"":""digit#2 off"",""pd_used"":0}",2,0.008333,120.000000,1
Sergio_G01_CNS-LLF5HT7Y0,test,OFFmed_OFFstim,20251211_111528,2025-12-11 11:15:36.314726,1,0,reading,POSTREAD_FIX2_ON,232,2025-12-11 11:16:01.972417,25.647274,1.710166,,,,,,keyboard,after digit#2,"{""note"":""after digit#2""}",2,0.008333,120.000000,1
Sergio_G01_CNS-LLF5HT7Y0,test,OFFmed_OFFstim,20251211_111528,2025-12-11 11:15:36.314726,1,0,reading,POSTREAD_FIX2_OFF,242,2025-12-11 11:16:03.681006,27.357440,0.025928,,,,,,keyboard,after digit#2,"{""note"":""after digit#2"",""pd_used"":0}",2,0.008333,120.000000,1
Sergio_G01_CNS-LLF5HT7Y0,test,OFFmed_OFFstim,20251211_111528,2025-12-11 11:15:36.314726,1,0,reading,READ_DIGIT3_ON,203,2025-12-11 11:16:03.705890,27.383368,2.631159,,8,,,,keyboard,digit#3 shown,"{""value"":8,""note"":""digit#3 shown"",""pd_used"":0}",2,0.008333,120.000000,1
Sergio_G01_CNS-LLF5HT7Y0,test,OFFmed_OFFstim,20251211_111528,2025-12-11 11:15:36.314726,1,0,reading,PROBE_COUNT_OK_3,71,2025-12-11 11:16:06.792075,30.014526,0.480030,10.619693,slot#3,NaN,,,keyboard,probe_digit#3,"{""value"":""slot#3"",""entered"":null,""rt"":10.619693199987523,""note"":""probe_digit#3""}",2,0.008333,120.000000,1
Sergio_G01_CNS-LLF5HT7Y0,test,OFFmed_OFFstim,20251211_111528,2025-12-11 11:15:36.314726,1,0,reading,READ_DIGIT3_OFF,213,2025-12-11 11:16:06.818493,30.494556,0.000000,,8,,,,keyboard,digit#3 off,"{""value"":8,""note"":""digit#3 off"",""pd_used"":0}",2,0.008333,120.000000,1
Sergio_G01_CNS-LLF5HT7Y0,test,OFFmed_OFFstim,20251211_111528,2025-12-11 11:15:36.314726,1,0,reading,POSTREAD_FIX3_ON,233,2025-12-11 11:16:06.819517,30.494556,1.889020,,,,,,keyboard,after digit#3,"{""note"":""after digit#3""}",2,0.008333,120.000000,1
Sergio_G01_CNS-LLF5HT7Y0,test,OFFmed_OFFstim,20251211_111528,2025-12-11 11:15:36.314726,1,0,reading,POSTREAD_FIX3_OFF,243,2025-12-11 11:16:08.706592,32.383576,0.024796,,,,,,keyboard,after digit#3,"{""note"":""after digit#3"",""pd_used"":0}",2,0.008333,120.000000,1
Sergio_G01_CNS-LLF5HT7Y0,test,OFFmed_OFFstim,20251211_111528,2025-12-11 11:15:36.314726,1,0,reading,READ_DIGIT4_ON,204,2025-12-11 11:16:08.731314,32.408373,0.623079,,2,,,,keyboard,digit#4 shown,"{""value"":2,""note"":""digit#4 shown"",""pd_used"":0}",2,0.008333,120.000000,1
Sergio_G01_CNS-LLF5HT7Y0,test,OFFmed_OFFstim,20251211_111528,2025-12-11 11:15:36.314726,1,0,reading,PROBE_COUNT_OK_4,71,2025-12-11 11:16:09.812421,33.031451,0.483598,13.636618,slot#4,NaN,,,keyboard,probe_digit#4,"{""value"":""slot#4"",""entered"":null,""rt"":13.636618199991062,""note"":""probe_digit#4""}",2,0.008333,120.000000,1
Sergio_G01_CNS-LLF5HT7Y0,test,OFFmed_OFFstim,20251211_111528,2025-12-11 11:15:36.314726,1,0,reading,READ_DIGIT4_OFF,214,2025-12-11 11:16:09.839222,33.515049,0.000000,,2,,,,keyboard,digit#4 off,"{""value"":2,""note"":""digit#4 off"",""pd_used"":0}",2,0.008333,120.000000,1
Sergio_G01_CNS-LLF5HT7Y0,test,OFFmed_OFFstim,20251211_111528,2025-12-11 11:15:36.314726,1,0,reading,POSTREAD_FIX4_ON,234,2025-12-11 11:16:09.847043,33.515049,1.847596,,,,,,keyboard,after digit#4,"{""note"":""after digit#4""}",2,0.008333,120.000000,1
Sergio_G01_CNS-LLF5HT7Y0,test,OFFmed_OFFstim,20251211_111528,2025-12-11 11:15:36.314726,1,0,reading,POSTREAD_FIX4_OFF,244,2025-12-11 11:16:11.686255,35.362645,0.026817,,,,,,keyboard,after digit#4,"{""note"":""after digit#4"",""pd_used"":0}",2,0.008333,120.000000,1
Sergio_G01_CNS-LLF5HT7Y0,test,OFFmed_OFFstim,20251211_111528,2025-12-11 11:15:36.314726,1,0,reading,READ_DIGIT5_ON,205,2025-12-11 11:16:11.711788,35.389462,0.455298,,7,,,,keyboard,digit#5 shown,"{""value"":7,""note"":""digit#5 shown"",""pd_used"":0}",2,0.008333,120.000000,1
Sergio_G01_CNS-LLF5HT7Y0,test,OFFmed_OFFstim,20251211_111528,2025-12-11 11:15:36.314726,1,0,reading,PROBE_COUNT_OK_5,71,2025-12-11 11:16:12.622336,35.844760,0.483183,16.449927,slot#5,NaN,,,keyboard,probe_digit#5,"{""value"":""slot#5"",""entered"":null,""rt"":16.449926500004949,""note"":""probe_digit#5""}",2,0.008333,120.000000,1
Sergio_G01_CNS-LLF5HT7Y0,test,OFFmed_OFFstim,20251211_111528,2025-12-11 11:15:36.314726,1,0,reading,READ_DIGIT5_OFF,215,2025-12-11 11:16:12.649820,36.327943,0.000000,,7,,,,keyboard,digit#5 off,"{""value"":7,""note"":""digit#5 off"",""pd_used"":0}",2,0.008333,120.000000,1
Sergio_G01_CNS-LLF5HT7Y0,test,OFFmed_OFFstim,20251211_111528,2025-12-11 11:15:36.314726,1,0,reading,POSTREAD_FIX5_ON,235,2025-12-11 11:16:12.651782,36.327943,1.989561,,,,,,keyboard,after digit#5,"{""note"":""after digit#5""}",2,0.008333,120.000000,1
Sergio_G01_CNS-LLF5HT7Y0,test,OFFmed_OFFstim,20251211_111528,2025-12-11 11:15:36.314726,1,0,reading,POSTREAD_FIX5_OFF,245,2025-12-11 11:16:14.640527,38.317504,0.026227,,,,,,keyboard,after digit#5,"{""note"":""after digit#5"",""pd_used"":0}",2,0.008333,120.000000,1
Sergio_G01_CNS-LLF5HT7Y0,test,OFFmed_OFFstim,20251211_111528,2025-12-11 11:15:36.314726,1,0,reading,READ_DIGIT6_ON,206,2025-12-11 11:16:14.664924,38.343732,0.628561,,7,,,,keyboard,digit#6 shown,"{""value"":7,""note"":""digit#6 shown"",""pd_used"":0}",2,0.008333,120.000000,1
Sergio_G01_CNS-LLF5HT7Y0,test,OFFmed_OFFstim,20251211_111528,2025-12-11 11:15:36.314726,1,0,reading,PROBE_COUNT_OK_6,71,2025-12-11 11:16:15.850355,38.972292,0.580444,19.577459,slot#6,NaN,,,keyboard,probe_digit#6,"{""value"":""slot#6"",""entered"":null,""rt"":19.577459199994337,""note"":""probe_digit#6""}",2,0.008333,120.000000,1
Sergio_G01_CNS-LLF5HT7Y0,test,OFFmed_OFFstim,20251211_111528,2025-12-11 11:15:36.314726,1,0,reading,READ_DIGIT6_OFF,216,2025-12-11 11:16:15.878563,39.552736,0.000000,,7,,,,keyboard,digit#6 off,"{""value"":7,""note"":""digit#6 off"",""pd_used"":0}",2,0.008333,120.000000,1
Sergio_G01_CNS-LLF5HT7Y0,test,OFFmed_OFFstim,20251211_111528,2025-12-11 11:15:36.314726,1,0,reading,POSTREAD_FIX6_ON,236,2025-12-11 11:16:15.880431,39.552736,1.522349,,,,,,keyboard,after digit#6,"{""note"":""after digit#6""}",2,0.008333,120.000000,1
Sergio_G01_CNS-LLF5HT7Y0,test,OFFmed_OFFstim,20251211_111528,2025-12-11 11:15:36.314726,1,0,reading,POSTREAD_FIX6_OFF,246,2025-12-11 11:16:17.398156,41.075085,0.024688,,,,,,keyboard,after digit#6,"{""note"":""after digit#6"",""pd_used"":0}",2,0.008333,120.000000,1
Sergio_G01_CNS-LLF5HT7Y0,test,OFFmed_OFFstim,20251211_111528,2025-12-11 11:15:36.314726,1,0,reading,READ_DIGIT7_ON,207,2025-12-11 11:16:17.422760,41.099773,0.921251,,1,,,,keyboard,digit#7 shown,"{""value"":1,""note"":""digit#7 shown"",""pd_used"":0}",2,0.008333,120.000000,1
Sergio_G01_CNS-LLF5HT7Y0,test,OFFmed_OFFstim,20251211_111528,2025-12-11 11:15:36.314726,1,0,reading,PROBE_COUNT_OK_7,71,2025-12-11 11:16:18.791428,42.021024,0.472434,22.626190,slot#7,NaN,,,keyboard,probe_digit#7,"{""value"":""slot#7"",""entered"":null,""rt"":22.626190299983136,""note"":""probe_digit#7""}",2,0.008333,120.000000,1
Sergio_G01_CNS-LLF5HT7Y0,test,OFFmed_OFFstim,20251211_111528,2025-12-11 11:15:36.314726,1,0,reading,READ_DIGIT7_OFF,217,2025-12-11 11:16:18.819416,42.493457,0.000000,,1,,,,keyboard,digit#7 off,"{""value"":1,""note"":""digit#7 off"",""pd_used"":0}",2,0.008333,120.000000,1
Sergio_G01_CNS-LLF5HT7Y0,test,OFFmed_OFFstim,20251211_111528,2025-12-11 11:15:36.314726,1,0,reading,POSTREAD_FIX7_ON,237,2025-12-11 11:16:18.821131,42.493457,1.725744,,,,,,keyboard,after digit#7,"{""note"":""after digit#7""}",2,0.008333,120.000000,1
Sergio_G01_CNS-LLF5HT7Y0,test,OFFmed_OFFstim,20251211_111528,2025-12-11 11:15:36.314726,1,0,reading,POSTREAD_FIX7_OFF,247,2025-12-11 11:16:20.543163,44.219202,0.026174,,,,,,keyboard,after digit#7,"{""note"":""after digit#7"",""pd_used"":0}",2,0.008333,120.000000,1
Sergio_G01_CNS-LLF5HT7Y0,test,OFFmed_OFFstim,20251211_111528,2025-12-11 11:15:36.314726,1,0,reading,READ_DIGIT8_ON,208,2025-12-11 11:16:20.567234,44.245376,0.737926,,5,,,,keyboard,digit#8 shown,"{""value"":5,""note"":""digit#8 shown"",""pd_used"":0}",2,0.008333,120.000000,1
Sergio_G01_CNS-LLF5HT7Y0,test,OFFmed_OFFstim,20251211_111528,2025-12-11 11:15:36.314726,1,0,reading,PROBE_COUNT_OK_8,71,2025-12-11 11:16:21.723028,44.983302,0.442094,25.588469,slot#8,NaN,,,keyboard,probe_digit#8,"{""value"":""slot#8"",""entered"":null,""rt"":25.58846870000707,""note"":""probe_digit#8""}",2,0.008333,120.000000,1
Sergio_G01_CNS-LLF5HT7Y0,test,OFFmed_OFFstim,20251211_111528,2025-12-11 11:15:36.314726,1,0,reading,READ_DIGIT8_OFF,218,2025-12-11 11:16:21.750763,45.425396,0.000000,,5,,,,keyboard,digit#8 off,"{""value"":5,""note"":""digit#8 off"",""pd_used"":0}",2,0.008333,120.000000,1
Sergio_G01_CNS-LLF5HT7Y0,test,OFFmed_OFFstim,20251211_111528,2025-12-11 11:15:36.314726,1,0,reading,POSTREAD_FIX8_ON,238,2025-12-11 11:16:21.752575,45.425396,1.589985,,,,,,keyboard,after digit#8,"{""note"":""after digit#8""}",2,0.008333,120.000000,1
Sergio_G01_CNS-LLF5HT7Y0,test,OFFmed_OFFstim,20251211_111528,2025-12-11 11:15:36.314726,1,0,reading,POSTREAD_FIX8_OFF,248,2025-12-11 11:16:23.341726,47.015381,0.028679,,,,,,keyboard,after digit#8,"{""note"":""after digit#8"",""pd_used"":0}",2,0.008333,120.000000,1
Sergio_G01_CNS-LLF5HT7Y0,test,OFFmed_OFFstim,20251211_111528,2025-12-11 11:15:36.314726,1,0,reading,READ_DIGIT9_ON,209,2025-12-11 11:16:23.367065,47.044060,0.617676,,5,,,,keyboard,digit#9 shown,"{""value"":5,""note"":""digit#9 shown"",""pd_used"":0}",2,0.008333,120.000000,1
Sergio_G01_CNS-LLF5HT7Y0,test,OFFmed_OFFstim,20251211_111528,2025-12-11 11:15:36.314726,1,0,reading,PROBE_COUNT_OK_9,71,2025-12-11 11:16:24.432234,47.661736,0.473380,28.266903,slot#9,NaN,,,keyboard,probe_digit#9,"{""value"":""slot#9"",""entered"":null,""rt"":28.266902500006836,""note"":""probe_digit#9""}",2,0.008333,120.000000,1
Sergio_G01_CNS-LLF5HT7Y0,test,OFFmed_OFFstim,20251211_111528,2025-12-11 11:15:36.314726,1,0,reading,READ_DIGIT9_OFF,219,2025-12-11 11:16:24.461148,48.135116,0.000000,,5,,,,keyboard,digit#9 off,"{""value"":5,""note"":""digit#9 off"",""pd_used"":0}",2,0.008333,120.000000,1
Sergio_G01_CNS-LLF5HT7Y0,test,OFFmed_OFFstim,20251211_111528,2025-12-11 11:15:36.314726,1,0,reading,POSTREAD_FIX9_ON,239,2025-12-11 11:16:24.462781,48.135116,1.606420,,,,,,keyboard,after digit#9,"{""note"":""after digit#9""}",2,0.008333,120.000000,1
Sergio_G01_CNS-LLF5HT7Y0,test,OFFmed_OFFstim,20251211_111528,2025-12-11 11:15:36.314726,1,0,reading,POSTREAD_FIX9_OFF,249,2025-12-11 11:16:26.065842,49.741536,0.032004,,,,,,keyboard,after digit#9,"{""note"":""after digit#9"",""pd_used"":0}",2,0.008333,120.000000,1
Sergio_G01_CNS-LLF5HT7Y0,test,OFFmed_OFFstim,20251211_111528,2025-12-11 11:15:36.314726,1,0,reading,READ_DIGIT10_ON,210,2025-12-11 11:16:26.096302,49.773540,0.618615,,9,,,,keyboard,digit#10 shown,"{""value"":9,""note"":""digit#10 shown"",""pd_used"":0}",2,0.008333,120.000000,1
Sergio_G01_CNS-LLF5HT7Y0,test,OFFmed_OFFstim,20251211_111528,2025-12-11 11:15:36.314726,1,0,reading,PROBE_COUNT_OK_10,71,2025-12-11 11:16:27.134188,50.392155,0.445603,30.997321,slot#10,NaN,,,keyboard,probe_digit#10,"{""value"":""slot#10"",""entered"":null,""rt"":30.99732120000408,""note"":""probe_digit#10""}",2,0.008333,120.000000,1
Sergio_G01_CNS-LLF5HT7Y0,test,OFFmed_OFFstim,20251211_111528,2025-12-11 11:15:36.314726,1,0,reading,READ_DIGIT10_OFF,220,2025-12-11 11:16:27.163222,50.837758,0.000000,,9,,,,keyboard,digit#10 off,"{""value"":9,""note"":""digit#10 off"",""pd_used"":0}",2,0.008333,120.000000,1
Sergio_G01_CNS-LLF5HT7Y0,test,OFFmed_OFFstim,20251211_111528,2025-12-11 11:15:36.314726,1,0,reading,POSTREAD_FIX10_ON,240,2025-12-11 11:16:27.165006,50.837758,3.489254,,,,,,keyboard,after digit#10,"{""note"":""after digit#10""}",2,0.008333,120.000000,1
Sergio_G01_CNS-LLF5HT7Y0,test,OFFmed_OFFstim,20251211_111528,2025-12-11 11:15:36.314726,1,0,reading,POSTREAD_FIX10_OFF,250,2025-12-11 11:16:30.651854,54.327012,0.017838,,,,,,keyboard,after digit#10,"{""note"":""after digit#10"",""pd_used"":0}",2,0.008333,120.000000,1
Sergio_G01_CNS-LLF5HT7Y0,test,OFFmed_OFFstim,20251211_111528,2025-12-11 11:15:36.314726,1,0,reading,CONTROL_END,24,2025-12-11 11:16:30.659997,54.344850,0.016922,,,,,,keyboard,,{},2,0.008333,120.000000,1
Sergio_G01_CNS-LLF5HT7Y0,test,OFFmed_OFFstim,20251211_111528,2025-12-11 11:15:36.314726,1,0,reading,START_PAGE_ON,4,2025-12-11 11:16:30.687023,54.361772,0.019702,,,,,,keyboard,,"{""pd_used"":0}",2,0.008333,120.000000,1
Sergio_G01_CNS-LLF5HT7Y0,test,OFFmed_OFFstim,20251211_111528,2025-12-11 11:15:36.314726,1,0,reading,START_PAGE_ON,4,2025-12-11 11:16:30.687023,54.361772,1.488291,,,,,,keyboard,,"{""pd_used"":0}",2,0.008333,120.000000,1
Sergio_G01_CNS-LLF5HT7Y0,test,OFFmed_OFFstim,20251211_111528,2025-12-11 11:15:36.314726,1,0,reading,START_PAGE_ON,4,2025-12-11 11:16:30.687023,54.361772,1.807505,,,,,,keyboard,,"{""pd_used"":0}",2,0.008333,120.000000,1
Sergio_G01_CNS-LLF5HT7Y0,test,OFFmed_OFFstim,20251211_111528,2025-12-11 11:15:36.314726,1,0,reading,SESSION_START,1,2025-12-11 11:16:32.484693,56.169277,0.023901,,,,,,keyboard,,{},2,0.008333,120.000000,1
Sergio_G01_CNS-LLF5HT7Y0,test,OFFmed_OFFstim,20251211_111528,2025-12-11 11:15:36.314726,1,1,reading,TRIAL_CHANGE,22,2025-12-11 11:16:32.508523,56.193179,0.002068,,,,,,keyboard,trial transition,"{""note"":""trial transition""}",2,0.008333,120.000000,1
Sergio_G01_CNS-LLF5HT7Y0,test,OFFmed_OFFstim,20251211_111528,2025-12-11 11:15:36.314726,1,1,reading,TRIAL_START,20,2025-12-11 11:16:32.510388,56.195246,0.024624,,,,,,keyboard,,{},2,0.008333,120.000000,1
Sergio_G01_CNS-LLF5HT7Y0,test,OFFmed_OFFstim,20251211_111528,2025-12-11 11:15:36.314726,1,1,fix1,FIX1_ON,30,2025-12-11 11:16:32.544082,56.219870,3.373726,,,,,,keyboard,,"{""pd_used"":0}",2,0.008333,120.000000,1
Sergio_G01_CNS-LLF5HT7Y0,test,OFFmed_OFFstim,20251211_111528,2025-12-11 11:15:36.314726,1,1,fix1,FIX1_OFF,31,2025-12-11 11:16:35.917831,59.593596,0.020681,,,,,,keyboard,,"{""pd_used"":0}",2,0.008333,120.000000,1
Sergio_G01_CNS-LLF5HT7Y0,test,OFFmed_OFFstim,20251211_111528,2025-12-11 11:15:36.314726,1,1,digit,DIGIT1_ON,141,2025-12-11 11:16:35.937741,59.614277,0.520526,,0,,,,keyboard,digit#1 shown,"{""value"":0,""note"":""digit#1 shown"",""pd_used"":1}",2,0.008333,120.000000,1
Sergio_G01_CNS-LLF5HT7Y0,test,OFFmed_OFFstim,20251211_111528,2025-12-11 11:15:36.314726,1,1,digit,DIGIT1_OFF,146,2025-12-11 11:16:36.458750,60.134804,0.000000,,0,,,,keyboard,digit#1 off,"{""value"":0,""note"":""digit#1 off"",""pd_used"":0}",2,0.008333,120.000000,1
Sergio_G01_CNS-LLF5HT7Y0,test,OFFmed_OFFstim,20251211_111528,2025-12-11 11:15:36.314726,1,1,digit,POSTDIG_FIX1_ON,151,2025-12-11 11:16:36.460625,60.134804,1.832324,,,,,,keyboard,after digit#1,"{""note"":""after digit#1""}",2,0.008333,120.000000,1
Sergio_G01_CNS-LLF5HT7Y0,test,OFFmed_OFFstim,20251211_111528,2025-12-11 11:15:36.314726,1,1,digit,POSTDIG_FIX1_OFF,156,2025-12-11 11:16:38.290924,61.967128,0.019045,,,,,,keyboard,after digit#1,"{""note"":""after digit#1"",""pd_used"":0}",2,0.008333,120.000000,1
Sergio_G01_CNS-LLF5HT7Y0,test,OFFmed_OFFstim,20251211_111528,2025-12-11 11:15:36.314726,1,1,digit,DIGIT2_ON,142,2025-12-11 11:16:38.315572,61.986173,0.525198,,7,,,,keyboard,digit#2 shown,"{""value"":7,""note"":""digit#2 shown"",""pd_used"":1}",2,0.008333,120.000000,1
Sergio_G01_CNS-LLF5HT7Y0,test,OFFmed_OFFstim,20251211_111528,2025-12-11 11:15:36.314726,1,1,digit,DIGIT2_OFF,147,2025-12-11 11:16:38.835203,62.511371,0.000000,,7,,,,keyboard,digit#2 off,"{""value"":7,""note"":""digit#2 off"",""pd_used"":0}",2,0.008333,120.000000,1
Sergio_G01_CNS-LLF5HT7Y0,test,OFFmed_OFFstim,20251211_111528,2025-12-11 11:15:36.314726,1,1,digit,POSTDIG_FIX2_ON,152,2025-12-11 11:16:38.837115,62.511371,1.828340,,,,,,keyboard,after digit#2,"{""note"":""after digit#2""}",2,0.008333,120.000000,1
Sergio_G01_CNS-LLF5HT7Y0,test,OFFmed_OFFstim,20251211_111528,2025-12-11 11:15:36.314726,1,1,digit,POSTDIG_FIX2_OFF,157,2025-12-11 11:16:40.663700,64.339711,0.019918,,,,,,keyboard,after digit#2,"{""note"":""after digit#2"",""pd_used"":0}",2,0.008333,120.000000,1
Sergio_G01_CNS-LLF5HT7Y0,test,OFFmed_OFFstim,20251211_111528,2025-12-11 11:15:36.314726,1,1,digit,DIGIT3_ON,143,2025-12-11 11:16:40.683612,64.359629,0.520353,,6,,,,keyboard,digit#3 shown,"{""value"":6,""note"":""digit#3 shown"",""pd_used"":1}",2,0.008333,120.000000,1
Sergio_G01_CNS-LLF5HT7Y0,test,OFFmed_OFFstim,20251211_111528,2025-12-11 11:15:36.314726,1,1,digit,DIGIT3_OFF,148,2025-12-11 11:16:41.203957,64.879982,0.000000,,6,,,,keyboard,digit#3 off,"{""value"":6,""note"":""digit#3 off"",""pd_used"":0}",2,0.008333,120.000000,1
Sergio_G01_CNS-LLF5HT7Y0,test,OFFmed_OFFstim,20251211_111528,2025-12-11 11:15:36.314726,1,1,digit,POSTDIG_FIX3_ON,153,2025-12-11 11:16:41.209155,64.879982,1.887865,,,,,,keyboard,after digit#3,"{""note"":""after digit#3""}",2,0.008333,120.000000,1
Sergio_G01_CNS-LLF5HT7Y0,test,OFFmed_OFFstim,20251211_111528,2025-12-11 11:15:36.314726,1,1,digit,POSTDIG_FIX3_OFF,158,2025-12-11 11:16:43.092594,66.767846,0.020268,,,,,,keyboard,after digit#3,"{""note"":""after digit#3"",""pd_used"":0}",2,0.008333,120.000000,1
Sergio_G01_CNS-LLF5HT7Y0,test,OFFmed_OFFstim,20251211_111528,2025-12-11 11:15:36.314726,1,1,digit,DIGIT4_ON,144,2025-12-11 11:16:43.111780,66.788115,0.519411,,6,,,,keyboard,digit#4 shown,"{""value"":6,""note"":""digit#4 shown"",""pd_used"":1}",2,0.008333,120.000000,1
Sergio_G01_CNS-LLF5HT7Y0,test,OFFmed_OFFstim,20251211_111528,2025-12-11 11:15:36.314726,1,1,digit,DIGIT4_OFF,149,2025-12-11 11:16:43.631237,67.307526,0.000000,,6,,,,keyboard,digit#4 off,"{""value"":6,""note"":""digit#4 off"",""pd_used"":0}",2,0.008333,120.000000,1
Sergio_G01_CNS-LLF5HT7Y0,test,OFFmed_OFFstim,20251211_111528,2025-12-11 11:15:36.314726,1,1,digit,POSTDIG_FIX4_ON,154,2025-12-11 11:16:43.633027,67.307526,1.715160,,,,,,keyboard,after digit#4,"{""note"":""after digit#4""}",2,0.008333,120.000000,1
Sergio_G01_CNS-LLF5HT7Y0,test,OFFmed_OFFstim,20251211_111528,2025-12-11 11:15:36.314726,1,1,digit,POSTDIG_FIX4_OFF,159,2025-12-11 11:16:45.346769,69.022686,0.021601,,,,,,keyboard,after digit#4,"{""note"":""after digit#4"",""pd_used"":0}",2,0.008333,120.000000,1
Sergio_G01_CNS-LLF5HT7Y0,test,OFFmed_OFFstim,20251211_111528,2025-12-11 11:15:36.314726,1,1,digit,DIGIT5_ON,145,2025-12-11 11:16:45.368061,69.044287,0.521949,,6,,,,keyboard,digit#5 shown,"{""value"":6,""note"":""digit#5 shown"",""pd_used"":1}",2,0.008333,120.000000,1
Sergio_G01_CNS-LLF5HT7Y0,test,OFFmed_OFFstim,20251211_111528,2025-12-11 11:15:36.314726,1,1,digit,DIGIT5_OFF,150,2025-12-11 11:16:45.889973,69.566236,0.000000,,6,,,,keyboard,digit#5 off,"{""value"":6,""note"":""digit#5 off"",""pd_used"":0}",2,0.008333,120.000000,1
Sergio_G01_CNS-LLF5HT7Y0,test,OFFmed_OFFstim,20251211_111528,2025-12-11 11:15:36.314726,1,1,digit,POSTDIG_FIX5_ON,155,2025-12-11 11:16:45.892983,69.566236,3.124672,,,,,,keyboard,after digit#5,"{""note"":""after digit#5""}",2,0.008333,120.000000,1
Sergio_G01_CNS-LLF5HT7Y0,test,OFFmed_OFFstim,20251211_111528,2025-12-11 11:15:36.314726,1,1,digit,POSTDIG_FIX5_OFF,160,2025-12-11 11:16:49.014623,72.690908,0.025365,,,,,,keyboard,after digit#5,"{""note"":""after digit#5"",""pd_used"":0}",2,0.008333,120.000000,1
Sergio_G01_CNS-LLF5HT7Y0,test,OFFmed_OFFstim,20251211_111528,2025-12-11 11:15:36.314726,1,1,distractor,DISTRACTOR_ON,50,2025-12-11 11:16:49.039266,72.716273,2.386777,,4+3=4,,,,keyboard,,"{""value"":""4+3=4"",""isCorrectTruth"":false,""trueSum"":7,""pd_used"":1}",2,0.008333,120.000000,1
Sergio_G01_CNS-LLF5HT7Y0,test,OFFmed_OFFstim,20251211_111528,2025-12-11 11:15:36.314726,1,1,distractor,DISTRACTOR_ANS,51,2025-12-11 11:16:51.927673,75.103049,0.000000,2.386777,4+3=4,F,1,,keyboard,key= (False),"{""value"":""4+3=4"",""entered"":""F"",""rt"":2.3867767000047024,""correct"":1,""note"":""key= (False)"",""truth"":false,""trueSum"":7,""shownSum"":4,""a"":4,""b"":3}",2,0.008333,120.000000,1
Sergio_G01_CNS-LLF5HT7Y0,test,OFFmed_OFFstim,20251211_111528,2025-12-11 11:15:36.314726,1,1,distractor,ANS_CORRECT,100,2025-12-11 11:16:51.939685,75.103049,0.530611,,,,,,keyboard,,{},2,0.008333,120.000000,1
Sergio_G01_CNS-LLF5HT7Y0,test,OFFmed_OFFstim,20251211_111528,2025-12-11 11:15:36.314726,1,1,distractor,DISTRACTOR_OFF,52,2025-12-11 11:16:51.957288,75.633660,0.000000,,,,,,keyboard,,"{""pd_used"":0}",2,0.008333,120.000000,1
Sergio_G01_CNS-LLF5HT7Y0,test,OFFmed_OFFstim,20251211_111528,2025-12-11 11:15:36.314726,1,1,distractor,FIX2_ON,60,2025-12-11 11:16:51.958373,75.633660,3.189768,,,,,,keyboard,immediate after response,"{""note"":""immediate after response""}",2,0.008333,120.000000,1
Sergio_G01_CNS-LLF5HT7Y0,test,OFFmed_OFFstim,20251211_111528,2025-12-11 11:15:36.314726,1,1,fix2,FIX2_OFF,61,2025-12-11 11:16:55.146954,78.823428,0.022371,,,,,,keyboard,,"{""pd_used"":0}",2,0.008333,120.000000,1
Sergio_G01_CNS-LLF5HT7Y0,test,OFFmed_OFFstim,20251211_111528,2025-12-11 11:15:36.314726,1,1,probe,DIGIT_RECALL_LINE_1,161,2025-12-11 11:16:55.169174,78.845799,1.691034,,1,,,,keyboard,first recall question,"{""value"":1,""note"":""first recall question"",""pd_used"":1}",2,0.008333,120.000000,1
Sergio_G01_CNS-LLF5HT7Y0,test,OFFmed_OFFstim,20251211_111528,2025-12-11 11:15:36.314726,1,1,probe,PROBE_DIGIT_OK_1,71,2025-12-11 11:16:57.321320,80.536833,0.488489,1.703064,slot#1,NaN,,,keyboard,probe_digit#1,"{""value"":""slot#1"",""entered"":null,""rt"":1.7030635999981314,""note"":""probe_digit#1""}",2,0.008333,120.000000,1
Sergio_G01_CNS-LLF5HT7Y0,test,OFFmed_OFFstim,20251211_111528,2025-12-11 11:15:36.314726,1,1,probe,DIGIT1_OFF,146,2025-12-11 11:16:57.348107,81.025322,0.000000,,6,,,,keyboard,digit#1 off,"{""value"":6,""note"":""digit#1 off"",""pd_used"":0}",2,0.008333,120.000000,1
Sergio_G01_CNS-LLF5HT7Y0,test,OFFmed_OFFstim,20251211_111528,2025-12-11 11:15:36.314726,1,1,probe,POSTDIG_FIX1_ON,151,2025-12-11 11:16:57.350017,81.025322,1.943669,,,,,,keyboard,after digit#1,"{""note"":""after digit#1""}",2,0.008333,120.000000,1
Sergio_G01_CNS-LLF5HT7Y0,test,OFFmed_OFFstim,20251211_111528,2025-12-11 11:15:36.314726,1,1,probe,POSTDIG_FIX1_OFF,156,2025-12-11 11:16:59.292325,82.968991,0.024711,,,,,,keyboard,after digit#1,"{""note"":""after digit#1"",""pd_used"":0}",2,0.008333,120.000000,1
Sergio_G01_CNS-LLF5HT7Y0,test,OFFmed_OFFstim,20251211_111528,2025-12-11 11:15:36.314726,1,1,probe,DIGIT_RECALL_LINE_2,162,2025-12-11 11:16:59.316608,82.993703,0.668890,,2,,,,keyboard,next recall question,"{""value"":2,""note"":""next recall question"",""pd_used"":1}",2,0.008333,120.000000,1
Sergio_G01_CNS-LLF5HT7Y0,test,OFFmed_OFFstim,20251211_111528,2025-12-11 11:15:36.314726,1,1,probe,PROBE_DIGIT_OK_2,71,2025-12-11 11:17:00.374326,83.662593,0.413996,4.828823,slot#2,NaN,,,keyboard,probe_digit#2,"{""value"":""slot#2"",""entered"":null,""rt"":4.8288229999889154,""note"":""probe_digit#2""}",2,0.008333,120.000000,1
Sergio_G01_CNS-LLF5HT7Y0,test,OFFmed_OFFstim,20251211_111528,2025-12-11 11:15:36.314726,1,1,probe,DIGIT2_OFF,147,2025-12-11 11:17:00.401616,84.076589,0.000000,,6,,,,keyboard,digit#2 off,"{""value"":6,""note"":""digit#2 off"",""pd_used"":0}",2,0.008333,120.000000,1
Sergio_G01_CNS-LLF5HT7Y0,test,OFFmed_OFFstim,20251211_111528,2025-12-11 11:15:36.314726,1,1,probe,POSTDIG_FIX2_ON,152,2025-12-11 11:17:00.403473,84.076589,1.956790,,,,,,keyboard,after digit#2,"{""note"":""after digit#2""}",2,0.008333,120.000000,1
Sergio_G01_CNS-LLF5HT7Y0,test,OFFmed_OFFstim,20251211_111528,2025-12-11 11:15:36.314726,1,1,probe,POSTDIG_FIX2_OFF,157,2025-12-11 11:17:02.356984,86.033379,0.026500,,,,,,keyboard,after digit#2,"{""note"":""after digit#2"",""pd_used"":0}",2,0.008333,120.000000,1
Sergio_G01_CNS-LLF5HT7Y0,test,OFFmed_OFFstim,20251211_111528,2025-12-11 11:15:36.314726,1,1,probe,DIGIT_RECALL_LINE_3,163,2025-12-11 11:17:02.383101,86.059878,1.017027,,3,,,,keyboard,next recall question,"{""value"":3,""note"":""next recall question"",""pd_used"":1}",2,0.008333,120.000000,1
Sergio_G01_CNS-LLF5HT7Y0,test,OFFmed_OFFstim,20251211_111528,2025-12-11 11:15:36.314726,1,1,probe,PROBE_DIGIT_OK_3,71,2025-12-11 11:17:03.933939,87.076906,0.559906,8.243136,slot#3,NaN,,,keyboard,probe_digit#3,"{""value"":""slot#3"",""entered"":null,""rt"":8.2431363000068814,""note"":""probe_digit#3""}",2,0.008333,120.000000,1
Sergio_G01_CNS-LLF5HT7Y0,test,OFFmed_OFFstim,20251211_111528,2025-12-11 11:15:36.314726,1,1,probe,DIGIT3_OFF,148,2025-12-11 11:17:03.960987,87.636811,0.000000,,6,,,,keyboard,digit#3 off,"{""value"":6,""note"":""digit#3 off"",""pd_used"":0}",2,0.008333,120.000000,1
Sergio_G01_CNS-LLF5HT7Y0,test,OFFmed_OFFstim,20251211_111528,2025-12-11 11:15:36.314726,1,1,probe,POSTDIG_FIX3_ON,153,2025-12-11 11:17:03.962715,87.636811,1.589315,,,,,,keyboard,after digit#3,"{""note"":""after digit#3""}",2,0.008333,120.000000,1
Sergio_G01_CNS-LLF5HT7Y0,test,OFFmed_OFFstim,20251211_111528,2025-12-11 11:15:36.314726,1,1,probe,POSTDIG_FIX3_OFF,158,2025-12-11 11:17:05.549560,89.226126,0.028509,,,,,,keyboard,after digit#3,"{""note"":""after digit#3"",""pd_used"":0}",2,0.008333,120.000000,1
Sergio_G01_CNS-LLF5HT7Y0,test,OFFmed_OFFstim,20251211_111528,2025-12-11 11:15:36.314726,1,1,probe,DIGIT_RECALL_LINE_4,164,2025-12-11 11:17:05.576836,89.254635,1.128197,,4,,,,keyboard,next recall question,"{""value"":4,""note"":""next recall question"",""pd_used"":1}",2,0.008333,120.000000,1
Sergio_G01_CNS-LLF5HT7Y0,test,OFFmed_OFFstim,20251211_111528,2025-12-11 11:15:36.314726,1,1,probe,PROBE_DIGIT_OK_4,71,2025-12-11 11:17:07.153534,90.382832,0.473212,11.549063,slot#4,NaN,,,keyboard,probe_digit#4,"{""value"":""slot#4"",""entered"":null,""rt"":11.549062600010075,""note"":""probe_digit#4""}",2,0.008333,120.000000,1
Sergio_G01_CNS-LLF5HT7Y0,test,OFFmed_OFFstim,20251211_111528,2025-12-11 11:15:36.314726,1,1,probe,DIGIT4_OFF,149,2025-12-11 11:17:07.180630,90.856045,0.000000,,6,,,,keyboard,digit#4 off,"{""value"":6,""note"":""digit#4 off"",""pd_used"":0}",2,0.008333,120.000000,1
Sergio_G01_CNS-LLF5HT7Y0,test,OFFmed_OFFstim,20251211_111528,2025-12-11 11:15:36.314726,1,1,probe,POSTDIG_FIX4_ON,154,2025-12-11 11:17:07.182500,90.856045,1.998339,,,,,,keyboard,after digit#4,"{""note"":""after digit#4""}",2,0.008333,120.000000,1
Sergio_G01_CNS-LLF5HT7Y0,test,OFFmed_OFFstim,20251211_111528,2025-12-11 11:15:36.314726,1,1,probe,POSTDIG_FIX4_OFF,159,2025-12-11 11:17:09.178026,92.854384,0.027012,,,,,,keyboard,after digit#4,"{""note"":""after digit#4"",""pd_used"":0}",2,0.008333,120.000000,1
Sergio_G01_CNS-LLF5HT7Y0,test,OFFmed_OFFstim,20251211_111528,2025-12-11 11:15:36.314726,1,1,probe,DIGIT_RECALL_LINE_5,165,2025-12-11 11:17:09.204135,92.881396,0.745574,,5,,,,keyboard,next recall question,"{""value"":5,""note"":""next recall question"",""pd_used"":1}",2,0.008333,120.000000,1
Sergio_G01_CNS-LLF5HT7Y0,test,OFFmed_OFFstim,20251211_111528,2025-12-11 11:15:36.314726,1,1,probe,PROBE_DIGIT_OK_5,71,2025-12-11 11:17:10.404895,93.626970,0.481605,14.793200,slot#5,NaN,,,keyboard,probe_digit#5,"{""value"":""slot#5"",""entered"":null,""rt"":14.793200399988564,""note"":""probe_digit#5""}",2,0.008333,120.000000,1
Sergio_G01_CNS-LLF5HT7Y0,test,OFFmed_OFFstim,20251211_111528,2025-12-11 11:15:36.314726,1,1,probe,DIGIT5_OFF,150,2025-12-11 11:17:10.433137,94.108575,0.000000,,6,,,,keyboard,digit#5 off,"{""value"":6,""note"":""digit#5 off"",""pd_used"":0}",2,0.008333,120.000000,1
Sergio_G01_CNS-LLF5HT7Y0,test,OFFmed_OFFstim,20251211_111528,2025-12-11 11:15:36.314726,1,1,probe,POSTDIG_FIX5_ON,155,2025-12-11 11:17:10.436048,94.108575,3.201091,,,,,,keyboard,after digit#5,"{""note"":""after digit#5""}",2,0.008333,120.000000,1
Sergio_G01_CNS-LLF5HT7Y0,test,OFFmed_OFFstim,20251211_111528,2025-12-11 11:15:36.314726,1,1,probe,POSTDIG_FIX5_OFF,160,2025-12-11 11:17:13.633258,97.309666,0.017676,,,,,,keyboard,after digit#5,"{""note"":""after digit#5"",""pd_used"":0}",2,0.008333,120.000000,1
Sergio_G01_CNS-LLF5HT7Y0,test,OFFmed_OFFstim,20251211_111528,2025-12-11 11:15:36.314726,1,1,probe,PROBE_DONE,73,2025-12-11 11:17:13.642524,97.327342,0.001880,,,,,,keyboard,probe complete,"{""value"":"""",""note"":""probe complete""}",2,0.008333,120.000000,1
Sergio_G01_CNS-LLF5HT7Y0,test,OFFmed_OFFstim,20251211_111528,2025-12-11 11:15:36.314726,1,1,probe,TRIAL_END,21,2025-12-11 11:17:13.644259,97.329222,0.008782,,,,,,keyboard,,{},2,0.008333,120.000000,1
Sergio_G01_CNS-LLF5HT7Y0,test,OFFmed_OFFstim,20251211_111528,2025-12-11 11:15:36.314726,1,1,probe,BLOCK_END,11,2025-12-11 11:17:13.653151,97.338004,0.233165,,,,,,keyboard,,{},2,0.008333,120.000000,1
Sergio_G01_CNS-LLF5HT7Y0,test,OFFmed_OFFstim,20251211_111528,2025-12-11 11:15:36.314726,1,1,probe,SESSION_END,3,2025-12-11 11:17:13.886164,97.571169,NaN,,,,,,keyboard,,{},2,0.008333,120.000000,1
