file_version,subject,condition,session,task_start_time,block,trial,phase,event_name,event_code,wall_clock,t_rel_sec,duration_to_next,rt,value_shown,entered_value,correct,key_name,device,note,json,screen_index,ifi,refresh_hz,pd_used
Sergio_G01_CNS-LLF5HT7Y0,S01,OFFmed_OFFstim,20260202_181737,2026-02-02 18:17:51.518214,NaN,NaN,,MIC_TEST_START,6,2026-02-02 18:17:51.521719,0.002944,19.624654,,,,,,keyboard,,{},1,NaN,NaN,1
Sergio_G01_CNS-LLF5HT7Y0,S01,OFFmed_OFFstim,20260202_181737,2026-02-02 18:17:51.518214,NaN,NaN,,MIC_TEST_END,7,2026-02-02 18:18:11.146821,19.627598,6.851524,,,,,,keyboard,,{},1,NaN,NaN,1
Sergio_G01_CNS-LLF5HT7Y0,S01,OFFmed_OFFstim,20260202_181737,2026-02-02 18:17:51.518214,NaN,NaN,,SESSION_START,1,2026-02-02 18:18:17.998207,26.479121,0.003635,,,,,,keyboard,,{},1,0.004237,236.007695,1
Sergio_G01_CNS-LLF5HT7Y0,S01,OFFmed_OFFstim,20260202_181737,2026-02-02 18:17:51.518214,1,NaN,,BLOCK_START,10,2026-02-02 18:18:18.001634,26.482757,0.032278,,,,,,keyboard,,{},1,0.004237,236.007695,1
Sergio_G01_CNS-LLF5HT7Y0,S01,OFFmed_OFFstim,20260202_181737,2026-02-02 18:17:51.518214,1,0,reading,START_PAGE_ON,4,2026-02-02 18:18:18.034079,26.515035,0.008452,,,,,,keyboard,,"{""pd_used"":0}",1,0.004237,236.007695,1
Sergio_G01_CNS-LLF5HT7Y0,S01,OFFmed_OFFstim,20260202_181737,2026-02-02 18:17:51.518214,1,0,reading,START_PAGE_ON,4,2026-02-02 18:18:18.034079,26.515035,3.028908,,,,,,keyboard,,"{""pd_used"":0}",1,0.004237,236.007695,1
Sergio_G01_CNS-LLF5HT7Y0,S01,OFFmed_OFFstim,20260202_181737,2026-02-02 18:17:51.518214,1,0,reading,START_PAGE_ON,4,2026-02-02 18:18:18.034079,26.515035,3.336297,,,,,,keyboard,,"{""pd_used"":0}",1,0.004237,236.007695,1
Sergio_G01_CNS-LLF5HT7Y0,S01,OFFmed_OFFstim,20260202_181737,2026-02-02 18:17:51.518214,1,0,reading,READING_START,23,2026-02-02 18:18:21.370326,29.851331,0.008446,,,,,,keyboard,,{},1,0.004237,236.007695,1
Sergio_G01_CNS-LLF5HT7Y0,S01,OFFmed_OFFstim,20260202_181737,2026-02-02 18:17:51.518214,1,0,reading,DIGIT_READ1_ON,101,2026-02-02 18:18:21.378789,29.859778,1.077577,,3,,,,keyboard,digit#1 shown,"{""value"":3,""note"":""digit#1 shown"",""pd_used"":1}",1,0.004237,236.007695,1
Sergio_G01_CNS-LLF5HT7Y0,S01,OFFmed_OFFstim,20260202_181737,2026-02-02 18:17:51.518214,1,0,reading,PROBE_COUNT_OK_1,71,2026-02-02 18:18:22.968405,30.937355,0.518810,4.450472,slot#1,NaN,,,keyboard,probe_digit#1,"{""value"":""slot#1"",""entered"":null,""rt"":4.450471899996046,""note"":""probe_digit#1""}",1,0.004237,236.007695,1
Sergio_G01_CNS-LLF5HT7Y0,S01,OFFmed_OFFstim,20260202_181737,2026-02-02 18:17:51.518214,1,0,reading,DIGIT_READ1_OFF,116,2026-02-02 18:18:22.974760,31.456165,0.000000,,3,,,,keyboard,digit#1 off,"{""value"":3,""note"":""digit#1 off"",""pd_used"":0}",1,0.004237,236.007695,1
Sergio_G01_CNS-LLF5HT7Y0,S01,OFFmed_OFFstim,20260202_181737,2026-02-02 18:17:51.518214,1,0,reading,POSTREAD_FIX1_ON,201,2026-02-02 18:18:22.977530,31.456165,1.711678,,,,,,keyboard,after digit#1,"{""note"":""after digit#1""}",1,0.004237,236.007695,1
Sergio_G01_CNS-LLF5HT7Y0,S01,OFFmed_OFFstim,20260202_181737,2026-02-02 18:17:51.518214,1,0,reading,POSTREAD_FIX1_OFF,216,2026-02-02 18:18:24.686990,33.167844,0.017277,,,,,,keyboard,after digit#1,"{""note"":""after digit#1"",""pd_used"":0}",1,0.004237,236.007695,1
Sergio_G01_CNS-LLF5HT7Y0,S01,OFFmed_OFFstim,20260202_181737,2026-02-02 18:17:51.518214,1,0,reading,DIGIT_READ2_ON,102,2026-02-02 18:18:24.704211,33.185120,0.610360,,2,,,,keyboard,digit#2 shown,"{""value"":2,""note"":""digit#2 shown"",""pd_used"":1}",1,0.004237,236.007695,1
Sergio_G01_CNS-LLF5HT7Y0,S01,OFFmed_OFFstim,20260202_181737,2026-02-02 18:17:51.518214,1,0,reading,PROBE_COUNT_OK_2,71,2026-02-02 18:18:25.783873,33.795480,0.474293,7.308597,slot#2,NaN,,,keyboard,probe_digit#2,"{""value"":""slot#2"",""entered"":null,""rt"":7.30859679999412,""note"":""probe_digit#2""}",1,0.004237,236.007695,1
Sergio_G01_CNS-LLF5HT7Y0,S01,OFFmed_OFFstim,20260202_181737,2026-02-02 18:17:51.518214,1,0,reading,DIGIT_READ2_OFF,117,2026-02-02 18:18:25.788067,34.269773,0.000000,,2,,,,keyboard,digit#2 off,"{""value"":2,""note"":""digit#2 off"",""pd_used"":0}",1,0.004237,236.007695,1
Sergio_G01_CNS-LLF5HT7Y0,S01,OFFmed_OFFstim,20260202_181737,2026-02-02 18:17:51.518214,1,0,reading,POSTREAD_FIX2_ON,202,2026-02-02 18:18:25.789482,34.269773,1.790356,,,,,,keyboard,after digit#2,"{""note"":""after digit#2""}",1,0.004237,236.007695,1
Sergio_G01_CNS-LLF5HT7Y0,S01,OFFmed_OFFstim,20260202_181737,2026-02-02 18:17:51.518214,1,0,reading,POSTREAD_FIX2_OFF,217,2026-02-02 18:18:27.579307,36.060129,0.017398,,,,,,keyboard,after digit#2,"{""note"":""after digit#2"",""pd_used"":0}",1,0.004237,236.007695,1
Sergio_G01_CNS-LLF5HT7Y0,S01,OFFmed_OFFstim,20260202_181737,2026-02-02 18:17:51.518214,1,0,reading,DIGIT_READ3_ON,103,2026-02-02 18:18:27.596418,36.077527,0.573159,,1,,,,keyboard,digit#3 shown,"{""value"":1,""note"":""digit#3 shown"",""pd_used"":1}",1,0.004237,236.007695,1
Sergio_G01_CNS-LLF5HT7Y0,S01,OFFmed_OFFstim,20260202_181737,2026-02-02 18:17:51.518214,1,0,reading,PROBE_COUNT_OK_3,71,2026-02-02 18:18:28.709627,36.650686,0.545479,10.163802,slot#3,NaN,,,keyboard,probe_digit#3,"{""value"":""slot#3"",""entered"":null,""rt"":10.163802399998531,""note"":""probe_digit#3""}",1,0.004237,236.007695,1
Sergio_G01_CNS-LLF5HT7Y0,S01,OFFmed_OFFstim,20260202_181737,2026-02-02 18:17:51.518214,1,0,reading,DIGIT_READ3_OFF,118,2026-02-02 18:18:28.714780,37.196164,0.000000,,1,,,,keyboard,digit#3 off,"{""value"":1,""note"":""digit#3 off"",""pd_used"":0}",1,0.004237,236.007695,1
Sergio_G01_CNS-LLF5HT7Y0,S01,OFFmed_OFFstim,20260202_181737,2026-02-02 18:17:51.518214,1,0,reading,POSTREAD_FIX3_ON,203,2026-02-02 18:18:28.716810,37.196164,1.777147,,,,,,keyboard,after digit#3,"{""note"":""after digit#3""}",1,0.004237,236.007695,1
Sergio_G01_CNS-LLF5HT7Y0,S01,OFFmed_OFFstim,20260202_181737,2026-02-02 18:17:51.518214,1,0,reading,POSTREAD_FIX3_OFF,218,2026-02-02 18:18:30.492857,38.973311,0.017360,,,,,,keyboard,after digit#3,"{""note"":""after digit#3"",""pd_used"":0}",1,0.004237,236.007695,1
Sergio_G01_CNS-LLF5HT7Y0,S01,OFFmed_OFFstim,20260202_181737,2026-02-02 18:17:51.518214,1,0,reading,DIGIT_READ4_ON,104,2026-02-02 18:18:30.509660,38.990672,0.624223,,5,,,,keyboard,digit#4 shown,"{""value"":5,""note"":""digit#4 shown"",""pd_used"":1}",1,0.004237,236.007695,1
Sergio_G01_CNS-LLF5HT7Y0,S01,OFFmed_OFFstim,20260202_181737,2026-02-02 18:17:51.518214,1,0,reading,PROBE_COUNT_OK_4,71,2026-02-02 18:18:31.693906,39.614894,0.566047,13.128011,slot#4,NaN,,,keyboard,probe_digit#4,"{""value"":""slot#4"",""entered"":null,""rt"":13.128010799991898,""note"":""probe_digit#4""}",1,0.004237,236.007695,1
Sergio_G01_CNS-LLF5HT7Y0,S01,OFFmed_OFFstim,20260202_181737,2026-02-02 18:17:51.518214,1,0,reading,DIGIT_READ4_OFF,119,2026-02-02 18:18:31.699391,40.180941,0.000000,,5,,,,keyboard,digit#4 off,"{""value"":5,""note"":""digit#4 off"",""pd_used"":0}",1,0.004237,236.007695,1
Sergio_G01_CNS-LLF5HT7Y0,S01,OFFmed_OFFstim,20260202_181737,2026-02-02 18:17:51.518214,1,0,reading,POSTREAD_FIX4_ON,204,2026-02-02 18:18:31.701016,40.180941,1.607928,,,,,,keyboard,after digit#4,"{""note"":""after digit#4""}",1,0.004237,236.007695,1
Sergio_G01_CNS-LLF5HT7Y0,S01,OFFmed_OFFstim,20260202_181737,2026-02-02 18:17:51.518214,1,0,reading,POSTREAD_FIX4_OFF,219,2026-02-02 18:18:33.308303,41.788869,0.017318,,,,,,keyboard,after digit#4,"{""note"":""after digit#4"",""pd_used"":0}",1,0.004237,236.007695,1
Sergio_G01_CNS-LLF5HT7Y0,S01,OFFmed_OFFstim,20260202_181737,2026-02-02 18:17:51.518214,1,0,reading,DIGIT_READ5_ON,105,2026-02-02 18:18:33.325105,41.806187,0.588716,,9,,,,keyboard,digit#5 shown,"{""value"":9,""note"":""digit#5 shown"",""pd_used"":1}",1,0.004237,236.007695,1
Sergio_G01_CNS-LLF5HT7Y0,S01,OFFmed_OFFstim,20260202_181737,2026-02-02 18:17:51.518214,1,0,reading,PROBE_COUNT_OK_5,71,2026-02-02 18:18:34.444983,42.394903,0.535936,15.908019,slot#5,NaN,,,keyboard,probe_digit#5,"{""value"":""slot#5"",""entered"":null,""rt"":15.908019099995727,""note"":""probe_digit#5""}",1,0.004237,236.007695,1
Sergio_G01_CNS-LLF5HT7Y0,S01,OFFmed_OFFstim,20260202_181737,2026-02-02 18:17:51.518214,1,0,reading,DIGIT_READ5_OFF,120,2026-02-02 18:18:34.449465,42.930838,0.000000,,9,,,,keyboard,digit#5 off,"{""value"":9,""note"":""digit#5 off"",""pd_used"":0}",1,0.004237,236.007695,1
Sergio_G01_CNS-LLF5HT7Y0,S01,OFFmed_OFFstim,20260202_181737,2026-02-02 18:17:51.518214,1,0,reading,POSTREAD_FIX5_ON,205,2026-02-02 18:18:34.451351,42.930838,1.873568,,,,,,keyboard,after digit#5,"{""note"":""after digit#5""}",1,0.004237,236.007695,1
Sergio_G01_CNS-LLF5HT7Y0,S01,OFFmed_OFFstim,20260202_181737,2026-02-02 18:17:51.518214,1,0,reading,POSTREAD_FIX5_OFF,220,2026-02-02 18:18:36.323869,44.804406,0.016164,,,,,,keyboard,after digit#5,"{""note"":""after digit#5"",""pd_used"":0}",1,0.004237,236.007695,1
Sergio_G01_CNS-LLF5HT7Y0,S01,OFFmed_OFFstim,20260202_181737,2026-02-02 18:17:51.518214,1,0,reading,DIGIT_READ6_ON,106,2026-02-02 18:18:36.339623,44.820570,0.603858,,2,,,,keyboard,digit#6 shown,"{""value"":2,""note"":""digit#6 shown"",""pd_used"":1}",1,0.004237,236.007695,1
Sergio_G01_CNS-LLF5HT7Y0,S01,OFFmed_OFFstim,20260202_181737,2026-02-02 18:17:51.518214,1,0,reading,PROBE_COUNT_OK_6,71,2026-02-02 18:18:37.405118,45.424428,0.466631,18.937545,slot#6,NaN,,,keyboard,probe_digit#6,"{""value"":""slot#6"",""entered"":null,""rt"":18.93754459999036,""note"":""probe_digit#6""}",1,0.004237,236.007695,1
Sergio_G01_CNS-LLF5HT7Y0,S01,OFFmed_OFFstim,20260202_181737,2026-02-02 18:17:51.518214,1,0,reading,DIGIT_READ6_OFF,121,2026-02-02 18:18:37.409571,45.891059,0.000000,,2,,,,keyboard,digit#6 off,"{""value"":2,""note"":""digit#6 off"",""pd_used"":0}",1,0.004237,236.007695,1
Sergio_G01_CNS-LLF5HT7Y0,S01,OFFmed_OFFstim,20260202_181737,2026-02-02 18:17:51.518214,1,0,reading,POSTREAD_FIX6_ON,206,2026-02-02 18:18:37.411234,45.891059,1.828178,,,,,,keyboard,after digit#6,"{""note"":""after digit#6""}",1,0.004237,236.007695,1
Sergio_G01_CNS-LLF5HT7Y0,S01,OFFmed_OFFstim,20260202_181737,2026-02-02 18:17:51.518214,1,0,reading,POSTREAD_FIX6_OFF,221,2026-02-02 18:18:39.238715,47.719237,0.017225,,,,,,keyboard,after digit#6,"{""note"":""after digit#6"",""pd_used"":0}",1,0.004237,236.007695,1
Sergio_G01_CNS-LLF5HT7Y0,S01,OFFmed_OFFstim,20260202_181737,2026-02-02 18:17:51.518214,1,0,reading,DIGIT_READ7_ON,107,2026-02-02 18:18:39.255432,47.736462,0.577229,,5,,,,keyboard,digit#7 shown,"{""value"":5,""note"":""digit#7 shown"",""pd_used"":1}",1,0.004237,236.007695,1
Sergio_G01_CNS-LLF5HT7Y0,S01,OFFmed_OFFstim,20260202_181737,2026-02-02 18:17:51.518214,1,0,reading,PROBE_COUNT_OK_7,71,2026-02-02 18:18:40.415954,48.313691,0.588305,21.826808,slot#7,NaN,,,keyboard,probe_digit#7,"{""value"":""slot#7"",""entered"":null,""rt"":21.826807599980384,""note"":""probe_digit#7""}",1,0.004237,236.007695,1
Sergio_G01_CNS-LLF5HT7Y0,S01,OFFmed_OFFstim,20260202_181737,2026-02-02 18:17:51.518214,1,0,reading,DIGIT_READ7_OFF,122,2026-02-02 18:18:40.420597,48.901996,0.000000,,5,,,,keyboard,digit#7 off,"{""value"":5,""note"":""digit#7 off"",""pd_used"":0}",1,0.004237,236.007695,1
Sergio_G01_CNS-LLF5HT7Y0,S01,OFFmed_OFFstim,20260202_181737,2026-02-02 18:17:51.518214,1,0,reading,POSTREAD_FIX7_ON,207,2026-02-02 18:18:40.422766,48.901996,1.571446,,,,,,keyboard,after digit#7,"{""note"":""after digit#7""}",1,0.004237,236.007695,1
Sergio_G01_CNS-LLF5HT7Y0,S01,OFFmed_OFFstim,20260202_181737,2026-02-02 18:17:51.518214,1,0,reading,POSTREAD_FIX7_OFF,222,2026-02-02 18:18:41.992843,50.473442,0.017026,,,,,,keyboard,after digit#7,"{""note"":""after digit#7"",""pd_used"":0}",1,0.004237,236.007695,1
Sergio_G01_CNS-LLF5HT7Y0,S01,OFFmed_OFFstim,20260202_181737,2026-02-02 18:17:51.518214,1,0,reading,DIGIT_READ8_ON,108,2026-02-02 18:18:42.009552,50.490468,0.595535,,6,,,,keyboard,digit#8 shown,"{""value"":6,""note"":""digit#8 shown"",""pd_used"":1}",1,0.004237,236.007695,1
Sergio_G01_CNS-LLF5HT7Y0,S01,OFFmed_OFFstim,20260202_181737,2026-02-02 18:17:51.518214,1,0,reading,PROBE_COUNT_OK_8,71,2026-02-02 18:18:43.047553,51.086003,0.447221,24.599120,slot#8,NaN,,,keyboard,probe_digit#8,"{""value"":""slot#8"",""entered"":null,""rt"":24.599119999998948,""note"":""probe_digit#8""}",1,0.004237,236.007695,1
Sergio_G01_CNS-LLF5HT7Y0,S01,OFFmed_OFFstim,20260202_181737,2026-02-02 18:17:51.518214,1,0,reading,DIGIT_READ8_OFF,123,2026-02-02 18:18:43.051663,51.533224,0.000000,,6,,,,keyboard,digit#8 off,"{""value"":6,""note"":""digit#8 off"",""pd_used"":0}",1,0.004237,236.007695,1
Sergio_G01_CNS-LLF5HT7Y0,S01,OFFmed_OFFstim,20260202_181737,2026-02-02 18:17:51.518214,1,0,reading,POSTREAD_FIX8_ON,208,2026-02-02 18:18:43.053251,51.533224,1.663988,,,,,,keyboard,after digit#8,"{""note"":""after digit#8""}",1,0.004237,236.007695,1
Sergio_G01_CNS-LLF5HT7Y0,S01,OFFmed_OFFstim,20260202_181737,2026-02-02 18:17:51.518214,1,0,reading,POSTREAD_FIX8_OFF,223,2026-02-02 18:18:44.716159,53.197213,0.016950,,,,,,keyboard,after digit#8,"{""note"":""after digit#8"",""pd_used"":0}",1,0.004237,236.007695,1
Sergio_G01_CNS-LLF5HT7Y0,S01,OFFmed_OFFstim,20260202_181737,2026-02-02 18:17:51.518214,1,0,reading,DIGIT_READ9_ON,109,2026-02-02 18:18:44.733354,53.214163,0.560359,,2,,,,keyboard,digit#9 shown,"{""value"":2,""note"":""digit#9 shown"",""pd_used"":1}",1,0.004237,236.007695,1
Sergio_G01_CNS-LLF5HT7Y0,S01,OFFmed_OFFstim,20260202_181737,2026-02-02 18:17:51.518214,1,0,reading,PROBE_COUNT_OK_9,71,2026-02-02 18:18:45.774403,53.774521,0.485670,27.287638,slot#9,NaN,,,keyboard,probe_digit#9,"{""value"":""slot#9"",""entered"":null,""rt"":27.287637899979018,""note"":""probe_digit#9""}",1,0.004237,236.007695,1
Sergio_G01_CNS-LLF5HT7Y0,S01,OFFmed_OFFstim,20260202_181737,2026-02-02 18:17:51.518214,1,0,reading,DIGIT_READ9_OFF,124,2026-02-02 18:18:45.778850,54.260192,0.000000,,2,,,,keyboard,digit#9 off,"{""value"":2,""note"":""digit#9 off"",""pd_used"":0}",1,0.004237,236.007695,1
Sergio_G01_CNS-LLF5HT7Y0,S01,OFFmed_OFFstim,20260202_181737,2026-02-02 18:17:51.518214,1,0,reading,POSTREAD_FIX9_ON,209,2026-02-02 18:18:45.780560,54.260192,1.714447,,,,,,keyboard,after digit#9,"{""note"":""after digit#9""}",1,0.004237,236.007695,1
Sergio_G01_CNS-LLF5HT7Y0,S01,OFFmed_OFFstim,20260202_181737,2026-02-02 18:17:51.518214,1,0,reading,POSTREAD_FIX9_OFF,224,2026-02-02 18:18:47.494042,55.974639,0.015438,,,,,,keyboard,after digit#9,"{""note"":""after digit#9"",""pd_used"":0}",1,0.004237,236.007695,1
Sergio_G01_CNS-LLF5HT7Y0,S01,OFFmed_OFFstim,20260202_181737,2026-02-02 18:17:51.518214,1,0,reading,DIGIT_READ10_ON,110,2026-02-02 18:18:47.509295,55.990076,0.573557,,6,,,,keyboard,digit#10 shown,"{""value"":6,""note"":""digit#10 shown"",""pd_used"":1}",1,0.004237,236.007695,1
Sergio_G01_CNS-LLF5HT7Y0,S01,OFFmed_OFFstim,20260202_181737,2026-02-02 18:17:51.518214,1,0,reading,PROBE_COUNT_OK_10,71,2026-02-02 18:18:48.538370,56.563633,0.460457,30.076750,slot#10,NaN,,,keyboard,probe_digit#10,"{""value"":""slot#10"",""entered"":null,""rt"":30.076750099979108,""note"":""probe_digit#10""}",1,0.004237,236.007695,1
Sergio_G01_CNS-LLF5HT7Y0,S01,OFFmed_OFFstim,20260202_181737,2026-02-02 18:17:51.518214,1,0,reading,DIGIT_READ10_OFF,125,2026-02-02 18:18:48.542741,57.024090,0.000000,,6,,,,keyboard,digit#10 off,"{""value"":6,""note"":""digit#10 off"",""pd_used"":0}",1,0.004237,236.007695,1
Sergio_G01_CNS-LLF5HT7Y0,S01,OFFmed_OFFstim,20260202_181737,2026-02-02 18:17:51.518214,1,0,reading,POSTREAD_FIX10_ON,210,2026-02-02 18:18:48.544502,57.024090,3.068805,,,,,,keyboard,after digit#10,"{""note"":""after digit#10""}",1,0.004237,236.007695,1
Sergio_G01_CNS-LLF5HT7Y0,S01,OFFmed_OFFstim,20260202_181737,2026-02-02 18:17:51.518214,1,0,reading,POSTREAD_FIX10_OFF,225,2026-02-02 18:18:51.612248,60.092895,0.016046,,,,,,keyboard,after digit#10,"{""note"":""after digit#10"",""pd_used"":0}",1,0.004237,236.007695,1
Sergio_G01_CNS-LLF5HT7Y0,S01,OFFmed_OFFstim,20260202_181737,2026-02-02 18:17:51.518214,1,0,reading,DIGIT_READ11_ON,111,2026-02-02 18:18:51.628005,60.108941,0.607563,,7,,,,keyboard,digit#11 shown,"{""value"":7,""note"":""digit#11 shown"",""pd_used"":1}",1,0.004237,236.007695,1
Sergio_G01_CNS-LLF5HT7Y0,S01,OFFmed_OFFstim,20260202_181737,2026-02-02 18:17:51.518214,1,0,reading,PROBE_COUNT_OK_11,71,2026-02-02 18:18:52.745254,60.716505,0.514729,34.229621,slot#11,NaN,,,keyboard,probe_digit#11,"{""value"":""slot#11"",""entered"":null,""rt"":34.229621199978283,""note"":""probe_digit#11""}",1,0.004237,236.007695,1
Sergio_G01_CNS-LLF5HT7Y0,S01,OFFmed_OFFstim,20260202_181737,2026-02-02 18:17:51.518214,1,0,reading,DIGIT_READ11_OFF,126,2026-02-02 18:18:52.749663,61.231234,0.000000,,7,,,,keyboard,digit#11 off,"{""value"":7,""note"":""digit#11 off"",""pd_used"":0}",1,0.004237,236.007695,1
Sergio_G01_CNS-LLF5HT7Y0,S01,OFFmed_OFFstim,20260202_181737,2026-02-02 18:17:51.518214,1,0,reading,POSTREAD_FIX11_ON,211,2026-02-02 18:18:52.751354,61.231234,3.218072,,,,,,keyboard,after digit#11,"{""note"":""after digit#11""}",1,0.004237,236.007695,1
Sergio_G01_CNS-LLF5HT7Y0,S01,OFFmed_OFFstim,20260202_181737,2026-02-02 18:17:51.518214,1,0,reading,POSTREAD_FIX11_OFF,226,2026-02-02 18:18:55.968517,64.449306,0.016222,,,,,,keyboard,after digit#11,"{""note"":""after digit#11"",""pd_used"":0}",1,0.004237,236.007695,1
Sergio_G01_CNS-LLF5HT7Y0,S01,OFFmed_OFFstim,20260202_181737,2026-02-02 18:17:51.518214,1,0,reading,DIGIT_READ12_ON,112,2026-02-02 18:18:55.984381,64.465528,0.556322,,3,,,,keyboard,digit#12 shown,"{""value"":3,""note"":""digit#12 shown"",""pd_used"":1}",1,0.004237,236.007695,1
Sergio_G01_CNS-LLF5HT7Y0,S01,OFFmed_OFFstim,20260202_181737,2026-02-02 18:17:51.518214,1,0,reading,PROBE_COUNT_OK_12,71,2026-02-02 18:18:57.013171,65.021850,0.478703,38.534966,slot#12,NaN,,,keyboard,probe_digit#12,"{""value"":""slot#12"",""entered"":null,""rt"":38.534966399980476,""note"":""probe_digit#12""}",1,0.004237,236.007695,1
Sergio_G01_CNS-LLF5HT7Y0,S01,OFFmed_OFFstim,20260202_181737,2026-02-02 18:17:51.518214,1,0,reading,DIGIT_READ12_OFF,127,2026-02-02 18:18:57.019034,65.500552,0.000000,,3,,,,keyboard,digit#12 off,"{""value"":3,""note"":""digit#12 off"",""pd_used"":0}",1,0.004237,236.007695,1
Sergio_G01_CNS-LLF5HT7Y0,S01,OFFmed_OFFstim,20260202_181737,2026-02-02 18:17:51.518214,1,0,reading,POSTREAD_FIX12_ON,212,2026-02-02 18:18:57.020657,65.500552,3.119357,,,,,,keyboard,after digit#12,"{""note"":""after digit#12""}",1,0.004237,236.007695,1
Sergio_G01_CNS-LLF5HT7Y0,S01,OFFmed_OFFstim,20260202_181737,2026-02-02 18:17:51.518214,1,0,reading,POSTREAD_FIX12_OFF,227,2026-02-02 18:19:00.139127,68.619910,0.017149,,,,,,keyboard,after digit#12,"{""note"":""after digit#12"",""pd_used"":0}",1,0.004237,236.007695,1
Sergio_G01_CNS-LLF5HT7Y0,S01,OFFmed_OFFstim,20260202_181737,2026-02-02 18:17:51.518214,1,0,reading,DIGIT_READ13_ON,113,2026-02-02 18:19:00.156118,68.637058,0.661071,,4,,,,keyboard,digit#13 shown,"{""value"":4,""note"":""digit#13 shown"",""pd_used"":1}",1,0.004237,236.007695,1
Sergio_G01_CNS-LLF5HT7Y0,S01,OFFmed_OFFstim,20260202_181737,2026-02-02 18:17:51.518214,1,0,reading,PROBE_COUNT_OK_13,71,2026-02-02 18:19:01.385460,69.298130,0.572842,42.811246,slot#13,NaN,,,keyboard,probe_digit#13,"{""value"":""slot#13"",""entered"":null,""rt"":42.811246199999005,""note"":""probe_digit#13""}",1,0.004237,236.007695,1
Sergio_G01_CNS-LLF5HT7Y0,S01,OFFmed_OFFstim,20260202_181737,2026-02-02 18:17:51.518214,1,0,reading,DIGIT_READ13_OFF,128,2026-02-02 18:19:01.389512,69.870971,0.000000,,4,,,,keyboard,digit#13 off,"{""value"":4,""note"":""digit#13 off"",""pd_used"":0}",1,0.004237,236.007695,1
Sergio_G01_CNS-LLF5HT7Y0,S01,OFFmed_OFFstim,20260202_181737,2026-02-02 18:17:51.518214,1,0,reading,POSTREAD_FIX13_ON,213,2026-02-02 18:19:01.391361,69.870971,3.259944,,,,,,keyboard,after digit#13,"{""note"":""after digit#13""}",1,0.004237,236.007695,1
Sergio_G01_CNS-LLF5HT7Y0,S01,OFFmed_OFFstim,20260202_181737,2026-02-02 18:17:51.518214,1,0,reading,POSTREAD_FIX13_OFF,228,2026-02-02 18:19:04.649990,73.130915,0.016079,,,,,,keyboard,after digit#13,"{""note"":""after digit#13"",""pd_used"":0}",1,0.004237,236.007695,1
Sergio_G01_CNS-LLF5HT7Y0,S01,OFFmed_OFFstim,20260202_181737,2026-02-02 18:17:51.518214,1,0,reading,DIGIT_READ14_ON,114,2026-02-02 18:19:04.666129,73.146994,0.682473,,9,,,,keyboard,digit#14 shown,"{""value"":9,""note"":""digit#14 shown"",""pd_used"":1}",1,0.004237,236.007695,1
Sergio_G01_CNS-LLF5HT7Y0,S01,OFFmed_OFFstim,20260202_181737,2026-02-02 18:17:51.518214,1,0,reading,PROBE_COUNT_OK_14,71,2026-02-02 18:19:05.945931,73.829468,0.602347,47.342584,slot#14,NaN,,,keyboard,probe_digit#14,"{""value"":""slot#14"",""entered"":null,""rt"":47.34258409999893,""note"":""probe_digit#14""}",1,0.004237,236.007695,1
Sergio_G01_CNS-LLF5HT7Y0,S01,OFFmed_OFFstim,20260202_181737,2026-02-02 18:17:51.518214,1,0,reading,DIGIT_READ14_OFF,129,2026-02-02 18:19:05.950369,74.431814,0.000000,,9,,,,keyboard,digit#14 off,"{""value"":9,""note"":""digit#14 off"",""pd_used"":0}",1,0.004237,236.007695,1
Sergio_G01_CNS-LLF5HT7Y0,S01,OFFmed_OFFstim,20260202_181737,2026-02-02 18:17:51.518214,1,0,reading,POSTREAD_FIX14_ON,214,2026-02-02 18:19:05.952353,74.431814,3.089963,,,,,,keyboard,after digit#14,"{""note"":""after digit#14""}",1,0.004237,236.007695,1
Sergio_G01_CNS-LLF5HT7Y0,S01,OFFmed_OFFstim,20260202_181737,2026-02-02 18:17:51.518214,1,0,reading,POSTREAD_FIX14_OFF,229,2026-02-02 18:19:09.041799,77.521777,0.017216,,,,,,keyboard,after digit#14,"{""note"":""after digit#14"",""pd_used"":0}",1,0.004237,236.007695,1
Sergio_G01_CNS-LLF5HT7Y0,S01,OFFmed_OFFstim,20260202_181737,2026-02-02 18:17:51.518214,1,0,reading,DIGIT_READ15_ON,115,2026-02-02 18:19:09.057997,77.538993,0.553953,,7,,,,keyboard,digit#15 shown,"{""value"":7,""note"":""digit#15 shown"",""pd_used"":1}",1,0.004237,236.007695,1
Sergio_G01_CNS-LLF5HT7Y0,S01,OFFmed_OFFstim,20260202_181737,2026-02-02 18:17:51.518214,1,0,reading,PROBE_COUNT_OK_15,71,2026-02-02 18:19:10.154851,78.092946,0.556012,51.606063,slot#15,NaN,,,keyboard,probe_digit#15,"{""value"":""slot#15"",""entered"":null,""rt"":51.606062799983192,""note"":""probe_digit#15""}",1,0.004237,236.007695,1
Sergio_G01_CNS-LLF5HT7Y0,S01,OFFmed_OFFstim,20260202_181737,2026-02-02 18:17:51.518214,1,0,reading,DIGIT_READ15_OFF,130,2026-02-02 18:19:10.167924,78.648959,0.000000,,7,,,,keyboard,digit#15 off,"{""value"":7,""note"":""digit#15 off"",""pd_used"":0}",1,0.004237,236.007695,1
Sergio_G01_CNS-LLF5HT7Y0,S01,OFFmed_OFFstim,20260202_181737,2026-02-02 18:17:51.518214,1,0,reading,POSTREAD_FIX15_ON,215,2026-02-02 18:19:10.169935,78.648959,3.038128,,,,,,keyboard,after digit#15,"{""note"":""after digit#15""}",1,0.004237,236.007695,1
Sergio_G01_CNS-LLF5HT7Y0,S01,OFFmed_OFFstim,20260202_181737,2026-02-02 18:17:51.518214,1,0,reading,POSTREAD_FIX15_OFF,230,2026-02-02 18:19:13.206387,81.687087,0.009622,,,,,,keyboard,after digit#15,"{""note"":""after digit#15"",""pd_used"":0}",1,0.004237,236.007695,1
Sergio_G01_CNS-LLF5HT7Y0,S01,OFFmed_OFFstim,20260202_181737,2026-02-02 18:17:51.518214,1,0,reading,READING_END,24,2026-02-02 18:19:13.215585,81.696709,0.007550,,,,,,keyboard,,{},1,0.004237,236.007695,1
Sergio_G01_CNS-LLF5HT7Y0,S01,OFFmed_OFFstim,20260202_181737,2026-02-02 18:17:51.518214,1,0,reading,START_PAGE_ON,4,2026-02-02 18:19:13.222979,81.704259,0.008612,,,,,,keyboard,,"{""pd_used"":0}",1,0.004237,236.007695,1
Sergio_G01_CNS-LLF5HT7Y0,S01,OFFmed_OFFstim,20260202_181737,2026-02-02 18:17:51.518214,1,0,reading,START_PAGE_ON,4,2026-02-02 18:19:13.222979,81.704259,1.460069,,,,,,keyboard,,"{""pd_used"":0}",1,0.004237,236.007695,1
Sergio_G01_CNS-LLF5HT7Y0,S01,OFFmed_OFFstim,20260202_181737,2026-02-02 18:17:51.518214,1,0,reading,START_PAGE_ON,4,2026-02-02 18:19:13.222979,81.704259,1.768898,,,,,,keyboard,,"{""pd_used"":0}",1,0.004237,236.007695,1
Sergio_G01_CNS-LLF5HT7Y0,S01,OFFmed_OFFstim,20260202_181737,2026-02-02 18:17:51.518214,1,1,reading,TRIAL_CHANGE,22,2026-02-02 18:19:14.991953,83.473157,0.002371,,,,,,keyboard,trial transition,"{""note"":""trial transition""}",1,0.004237,236.007695,1
Sergio_G01_CNS-LLF5HT7Y0,S01,OFFmed_OFFstim,20260202_181737,2026-02-02 18:17:51.518214,1,1,reading,TRIAL_START,20,2026-02-02 18:19:14.993840,83.475528,0.004506,,,,,,keyboard,,{},1,0.004237,236.007695,1
Sergio_G01_CNS-LLF5HT7Y0,S01,OFFmed_OFFstim,20260202_181737,2026-02-02 18:17:51.518214,1,1,fix1,FIX1_ON,30,2026-02-02 18:19:14.998609,83.480034,3.171038,,,,,,keyboard,,"{""pd_used"":0}",1,0.004237,236.007695,1
Sergio_G01_CNS-LLF5HT7Y0,S01,OFFmed_OFFstim,20260202_181737,2026-02-02 18:17:51.518214,1,1,fix1,FIX1_OFF,31,2026-02-02 18:19:18.170241,86.651072,0.008352,,,,,,keyboard,,"{""pd_used"":0}",1,0.004237,236.007695,1
Sergio_G01_CNS-LLF5HT7Y0,S01,OFFmed_OFFstim,20260202_181737,2026-02-02 18:17:51.518214,1,1,digit,DIGIT1_ON,141,2026-02-02 18:19:18.178531,86.659424,0.507882,,8,,,,keyboard,digit#1 shown,"{""value"":8,""note"":""digit#1 shown"",""pd_used"":1}",1,0.004237,236.007695,1
Sergio_G01_CNS-LLF5HT7Y0,S01,OFFmed_OFFstim,20260202_181737,2026-02-02 18:17:51.518214,1,1,digit,DIGIT1_OFF,146,2026-02-02 18:19:18.686670,87.167306,0.000000,,8,,,,keyboard,digit#1 off,"{""value"":8,""note"":""digit#1 off"",""pd_used"":0}",1,0.004237,236.007695,1
Sergio_G01_CNS-LLF5HT7Y0,S01,OFFmed_OFFstim,20260202_181737,2026-02-02 18:17:51.518214,1,1,digit,POSTDIG_FIX1_ON,151,2026-02-02 18:19:18.690314,87.167306,1.787365,,,,,,keyboard,after digit#1,"{""note"":""after digit#1""}",1,0.004237,236.007695,1
Sergio_G01_CNS-LLF5HT7Y0,S01,OFFmed_OFFstim,20260202_181737,2026-02-02 18:17:51.518214,1,1,digit,POSTDIG_FIX1_OFF,156,2026-02-02 18:19:20.474067,88.954671,0.008785,,,,,,keyboard,after digit#1,"{""note"":""after digit#1"",""pd_used"":0}",1,0.004237,236.007695,1
Sergio_G01_CNS-LLF5HT7Y0,S01,OFFmed_OFFstim,20260202_181737,2026-02-02 18:17:51.518214,1,1,digit,DIGIT2_ON,142,2026-02-02 18:19:20.482799,88.963456,0.505555,,0,,,,keyboard,digit#2 shown,"{""value"":0,""note"":""digit#2 shown"",""pd_used"":1}",1,0.004237,236.007695,1
Sergio_G01_CNS-LLF5HT7Y0,S01,OFFmed_OFFstim,20260202_181737,2026-02-02 18:17:51.518214,1,1,digit,DIGIT2_OFF,147,2026-02-02 18:19:20.988098,89.469011,0.000000,,0,,,,keyboard,digit#2 off,"{""value"":0,""note"":""digit#2 off"",""pd_used"":0}",1,0.004237,236.007695,1
Sergio_G01_CNS-LLF5HT7Y0,S01,OFFmed_OFFstim,20260202_181737,2026-02-02 18:17:51.518214,1,1,digit,POSTDIG_FIX2_ON,152,2026-02-02 18:19:20.990067,89.469011,1.595865,,,,,,keyboard,after digit#2,"{""note"":""after digit#2""}",1,0.004237,236.007695,1
Sergio_G01_CNS-LLF5HT7Y0,S01,OFFmed_OFFstim,20260202_181737,2026-02-02 18:17:51.518214,1,1,digit,POSTDIG_FIX2_OFF,157,2026-02-02 18:19:22.584339,91.064876,0.007737,,,,,,keyboard,after digit#2,"{""note"":""after digit#2"",""pd_used"":0}",1,0.004237,236.007695,1
Sergio_G01_CNS-LLF5HT7Y0,S01,OFFmed_OFFstim,20260202_181737,2026-02-02 18:17:51.518214,1,1,digit,DIGIT3_ON,143,2026-02-02 18:19:22.591410,91.072613,0.507058,,5,,,,keyboard,digit#3 shown,"{""value"":5,""note"":""digit#3 shown"",""pd_used"":1}",1,0.004237,236.007695,1
Sergio_G01_CNS-LLF5HT7Y0,S01,OFFmed_OFFstim,20260202_181737,2026-02-02 18:17:51.518214,1,1,digit,DIGIT3_OFF,148,2026-02-02 18:19:23.099133,91.579671,0.000000,,5,,,,keyboard,digit#3 off,"{""value"":5,""note"":""digit#3 off"",""pd_used"":0}",1,0.004237,236.007695,1
Sergio_G01_CNS-LLF5HT7Y0,S01,OFFmed_OFFstim,20260202_181737,2026-02-02 18:17:51.518214,1,1,digit,POSTDIG_FIX3_ON,153,2026-02-02 18:19:23.102020,91.579671,1.852923,,,,,,keyboard,after digit#3,"{""note"":""after digit#3""}",1,0.004237,236.007695,1
Sergio_G01_CNS-LLF5HT7Y0,S01,OFFmed_OFFstim,20260202_181737,2026-02-02 18:17:51.518214,1,1,digit,POSTDIG_FIX3_OFF,158,2026-02-02 18:19:24.952236,93.432594,0.008920,,,,,,keyboard,after digit#3,"{""note"":""after digit#3"",""pd_used"":0}",1,0.004237,236.007695,1
Sergio_G01_CNS-LLF5HT7Y0,S01,OFFmed_OFFstim,20260202_181737,2026-02-02 18:17:51.518214,1,1,digit,DIGIT4_ON,144,2026-02-02 18:19:24.960380,93.441514,0.505424,,6,,,,keyboard,digit#4 shown,"{""value"":6,""note"":""digit#4 shown"",""pd_used"":1}",1,0.004237,236.007695,1
Sergio_G01_CNS-LLF5HT7Y0,S01,OFFmed_OFFstim,20260202_181737,2026-02-02 18:17:51.518214,1,1,digit,DIGIT4_OFF,149,2026-02-02 18:19:25.465968,93.946938,0.000000,,6,,,,keyboard,digit#4 off,"{""value"":6,""note"":""digit#4 off"",""pd_used"":0}",1,0.004237,236.007695,1
Sergio_G01_CNS-LLF5HT7Y0,S01,OFFmed_OFFstim,20260202_181737,2026-02-02 18:17:51.518214,1,1,digit,POSTDIG_FIX4_ON,154,2026-02-02 18:19:25.467931,93.946938,1.637620,,,,,,keyboard,after digit#4,"{""note"":""after digit#4""}",1,0.004237,236.007695,1
Sergio_G01_CNS-LLF5HT7Y0,S01,OFFmed_OFFstim,20260202_181737,2026-02-02 18:17:51.518214,1,1,digit,POSTDIG_FIX4_OFF,159,2026-02-02 18:19:27.103765,95.584558,0.008915,,,,,,keyboard,after digit#4,"{""note"":""after digit#4"",""pd_used"":0}",1,0.004237,236.007695,1
Sergio_G01_CNS-LLF5HT7Y0,S01,OFFmed_OFFstim,20260202_181737,2026-02-02 18:17:51.518214,1,1,digit,DIGIT5_ON,145,2026-02-02 18:19:27.112351,95.593473,0.506953,,8,,,,keyboard,digit#5 shown,"{""value"":8,""note"":""digit#5 shown"",""pd_used"":1}",1,0.004237,236.007695,1
Sergio_G01_CNS-LLF5HT7Y0,S01,OFFmed_OFFstim,20260202_181737,2026-02-02 18:17:51.518214,1,1,digit,DIGIT5_OFF,150,2026-02-02 18:19:27.619914,96.100426,0.000000,,8,,,,keyboard,digit#5 off,"{""value"":8,""note"":""digit#5 off"",""pd_used"":0}",1,0.004237,236.007695,1
Sergio_G01_CNS-LLF5HT7Y0,S01,OFFmed_OFFstim,20260202_181737,2026-02-02 18:17:51.518214,1,1,digit,POSTDIG_FIX5_ON,155,2026-02-02 18:19:27.622560,96.100426,3.115226,,,,,,keyboard,after digit#5,"{""note"":""after digit#5""}",1,0.004237,236.007695,1
Sergio_G01_CNS-LLF5HT7Y0,S01,OFFmed_OFFstim,20260202_181737,2026-02-02 18:17:51.518214,1,1,digit,POSTDIG_FIX5_OFF,160,2026-02-02 18:19:30.735017,99.215652,0.012964,,,,,,keyboard,after digit#5,"{""note"":""after digit#5"",""pd_used"":0}",1,0.004237,236.007695,1
Sergio_G01_CNS-LLF5HT7Y0,S01,OFFmed_OFFstim,20260202_181737,2026-02-02 18:17:51.518214,1,1,distractor,DISTRACTOR_ON,50,2026-02-02 18:19:30.747398,99.228616,1.434399,,6+3=9,,,,keyboard,,"{""value"":""6+3=9"",""isCorrectTruth"":true,""trueSum"":9,""pd_used"":1}",1,0.004237,236.007695,1
Sergio_G01_CNS-LLF5HT7Y0,S01,OFFmed_OFFstim,20260202_181737,2026-02-02 18:17:51.518214,1,1,distractor,DISTRACTOR_ANS,51,2026-02-02 18:19:32.668760,100.663015,0.000000,1.434399,6+3=9,F,0,,keyboard,key= (False),"{""value"":""6+3=9"",""entered"":""F"",""rt"":1.434399099991424,""correct"":0,""note"":""key= (False)"",""truth"":true,""trueSum"":9,""shownSum"":9,""a"":6,""b"":3}",1,0.004237,236.007695,1
Sergio_G01_CNS-LLF5HT7Y0,S01,OFFmed_OFFstim,20260202_181737,2026-02-02 18:17:51.518214,1,1,distractor,ANS_WRONG,200,2026-02-02 18:19:32.672060,100.663015,0.494660,,,,,,keyboard,,{},1,0.004237,236.007695,1
Sergio_G01_CNS-LLF5HT7Y0,S01,OFFmed_OFFstim,20260202_181737,2026-02-02 18:17:51.518214,1,1,distractor,DISTRACTOR_OFF,52,2026-02-02 18:19:32.676126,101.157675,0.000000,,,,,,keyboard,,"{""pd_used"":0}",1,0.004237,236.007695,1
Sergio_G01_CNS-LLF5HT7Y0,S01,OFFmed_OFFstim,20260202_181737,2026-02-02 18:17:51.518214,1,1,distractor,FIX2_ON,60,2026-02-02 18:19:32.678001,101.157675,3.479693,,,,,,keyboard,immediate after response,"{""note"":""immediate after response""}",1,0.004237,236.007695,1
Sergio_G01_CNS-LLF5HT7Y0,S01,OFFmed_OFFstim,20260202_181737,2026-02-02 18:17:51.518214,1,1,fix2,FIX2_OFF,61,2026-02-02 18:19:36.156781,104.637368,0.008552,,,,,,keyboard,,"{""pd_used"":0}",1,0.004237,236.007695,1
Sergio_G01_CNS-LLF5HT7Y0,S01,OFFmed_OFFstim,20260202_181737,2026-02-02 18:17:51.518214,1,1,probe,DIGIT_RECALL_LINE_1,161,2026-02-02 18:19:36.164784,104.645920,0.534626,,1,,,,keyboard,first recall question,"{""value"":1,""note"":""first recall question"",""pd_used"":1}",1,0.004237,236.007695,1
Sergio_G01_CNS-LLF5HT7Y0,S01,OFFmed_OFFstim,20260202_181737,2026-02-02 18:17:51.518214,1,1,probe,PROBE_DIGIT_OK_1,71,2026-02-02 18:19:37.176031,105.180546,0.482785,0.539889,slot#1,NaN,,,keyboard,probe_digit#1,"{""value"":""slot#1"",""entered"":null,""rt"":0.53988880000542849,""note"":""probe_digit#1""}",1,0.004237,236.007695,1
Sergio_G01_CNS-LLF5HT7Y0,S01,OFFmed_OFFstim,20260202_181737,2026-02-02 18:17:51.518214,1,1,probe,DIGIT1_OFF,146,2026-02-02 18:19:37.182412,105.663331,0.000000,,8,,,,keyboard,digit#1 off,"{""value"":8,""note"":""digit#1 off"",""pd_used"":0}",1,0.004237,236.007695,1
Sergio_G01_CNS-LLF5HT7Y0,S01,OFFmed_OFFstim,20260202_181737,2026-02-02 18:17:51.518214,1,1,probe,POSTDIG_FIX1_ON,151,2026-02-02 18:19:37.186000,105.663331,1.576293,,,,,,keyboard,after digit#1,"{""note"":""after digit#1""}",1,0.004237,236.007695,1
Sergio_G01_CNS-LLF5HT7Y0,S01,OFFmed_OFFstim,20260202_181737,2026-02-02 18:17:51.518214,1,1,probe,POSTDIG_FIX1_OFF,156,2026-02-02 18:19:38.758760,107.239625,0.016227,,,,,,keyboard,after digit#1,"{""note"":""after digit#1"",""pd_used"":0}",1,0.004237,236.007695,1
Sergio_G01_CNS-LLF5HT7Y0,S01,OFFmed_OFFstim,20260202_181737,2026-02-02 18:17:51.518214,1,1,probe,DIGIT_RECALL_LINE_2,162,2026-02-02 18:19:38.775052,107.255851,0.422098,,2,,,,keyboard,next recall question,"{""value"":2,""note"":""next recall question"",""pd_used"":1}",1,0.004237,236.007695,1
Sergio_G01_CNS-LLF5HT7Y0,S01,OFFmed_OFFstim,20260202_181737,2026-02-02 18:17:51.518214,1,1,probe,PROBE_DIGIT_OK_2,71,2026-02-02 18:19:39.826442,107.677950,0.634155,3.037292,slot#2,NaN,,,keyboard,probe_digit#2,"{""value"":""slot#2"",""entered"":null,""rt"":3.0372920999943744,""note"":""probe_digit#2""}",1,0.004237,236.007695,1
Sergio_G01_CNS-LLF5HT7Y0,S01,OFFmed_OFFstim,20260202_181737,2026-02-02 18:17:51.518214,1,1,probe,DIGIT2_OFF,147,2026-02-02 18:19:39.830574,108.312105,0.000000,,8,,,,keyboard,digit#2 off,"{""value"":8,""note"":""digit#2 off"",""pd_used"":0}",1,0.004237,236.007695,1
Sergio_G01_CNS-LLF5HT7Y0,S01,OFFmed_OFFstim,20260202_181737,2026-02-02 18:17:51.518214,1,1,probe,POSTDIG_FIX2_ON,152,2026-02-02 18:19:39.832494,108.312105,1.642526,,,,,,keyboard,after digit#2,"{""note"":""after digit#2""}",1,0.004237,236.007695,1
Sergio_G01_CNS-LLF5HT7Y0,S01,OFFmed_OFFstim,20260202_181737,2026-02-02 18:17:51.518214,1,1,probe,POSTDIG_FIX2_OFF,157,2026-02-02 18:19:41.473839,109.954631,0.016766,,,,,,keyboard,after digit#2,"{""note"":""after digit#2"",""pd_used"":0}",1,0.004237,236.007695,1
Sergio_G01_CNS-LLF5HT7Y0,S01,OFFmed_OFFstim,20260202_181737,2026-02-02 18:17:51.518214,1,1,probe,DIGIT_RECALL_LINE_3,163,2026-02-02 18:19:41.490850,109.971396,0.394938,,3,,,,keyboard,next recall question,"{""value"":3,""note"":""next recall question"",""pd_used"":1}",1,0.004237,236.007695,1
Sergio_G01_CNS-LLF5HT7Y0,S01,OFFmed_OFFstim,20260202_181737,2026-02-02 18:17:51.518214,1,1,probe,PROBE_DIGIT_OK_3,71,2026-02-02 18:19:42.356332,110.366334,0.477108,5.725677,slot#3,NaN,,,keyboard,probe_digit#3,"{""value"":""slot#3"",""entered"":null,""rt"":5.7256765000056475,""note"":""probe_digit#3""}",1,0.004237,236.007695,1
Sergio_G01_CNS-LLF5HT7Y0,S01,OFFmed_OFFstim,20260202_181737,2026-02-02 18:17:51.518214,1,1,probe,DIGIT3_OFF,148,2026-02-02 18:19:42.362111,110.843442,0.000000,,8,,,,keyboard,digit#3 off,"{""value"":8,""note"":""digit#3 off"",""pd_used"":0}",1,0.004237,236.007695,1
Sergio_G01_CNS-LLF5HT7Y0,S01,OFFmed_OFFstim,20260202_181737,2026-02-02 18:17:51.518214,1,1,probe,POSTDIG_FIX3_ON,153,2026-02-02 18:19:42.364118,110.843442,1.699123,,,,,,keyboard,after digit#3,"{""note"":""after digit#3""}",1,0.004237,236.007695,1
Sergio_G01_CNS-LLF5HT7Y0,S01,OFFmed_OFFstim,20260202_181737,2026-02-02 18:17:51.518214,1,1,probe,POSTDIG_FIX3_OFF,158,2026-02-02 18:19:44.061736,112.542565,0.016205,,,,,,keyboard,after digit#3,"{""note"":""after digit#3"",""pd_used"":0}",1,0.004237,236.007695,1
Sergio_G01_CNS-LLF5HT7Y0,S01,OFFmed_OFFstim,20260202_181737,2026-02-02 18:17:51.518214,1,1,probe,DIGIT_RECALL_LINE_4,164,2026-02-02 18:19:44.077564,112.558770,0.426620,,4,,,,keyboard,next recall question,"{""value"":4,""note"":""next recall question"",""pd_used"":1}",1,0.004237,236.007695,1
Sergio_G01_CNS-LLF5HT7Y0,S01,OFFmed_OFFstim,20260202_181737,2026-02-02 18:17:51.518214,1,1,probe,PROBE_DIGIT_OK_4,71,2026-02-02 18:19:45.044501,112.985390,0.546305,8.344733,slot#4,NaN,,,keyboard,probe_digit#4,"{""value"":""slot#4"",""entered"":null,""rt"":8.3447329000046011,""note"":""probe_digit#4""}",1,0.004237,236.007695,1
Sergio_G01_CNS-LLF5HT7Y0,S01,OFFmed_OFFstim,20260202_181737,2026-02-02 18:17:51.518214,1,1,probe,DIGIT4_OFF,149,2026-02-02 18:19:45.050168,113.531695,0.000000,,8,,,,keyboard,digit#4 off,"{""value"":8,""note"":""digit#4 off"",""pd_used"":0}",1,0.004237,236.007695,1
Sergio_G01_CNS-LLF5HT7Y0,S01,OFFmed_OFFstim,20260202_181737,2026-02-02 18:17:51.518214,1,1,probe,POSTDIG_FIX4_ON,154,2026-02-02 18:19:45.051737,113.531695,1.925413,,,,,,keyboard,after digit#4,"{""note"":""after digit#4""}",1,0.004237,236.007695,1
Sergio_G01_CNS-LLF5HT7Y0,S01,OFFmed_OFFstim,20260202_181737,2026-02-02 18:17:51.518214,1,1,probe,POSTDIG_FIX4_OFF,159,2026-02-02 18:19:46.976085,115.457109,0.017549,,,,,,keyboard,after digit#4,"{""note"":""after digit#4"",""pd_used"":0}",1,0.004237,236.007695,1
Sergio_G01_CNS-LLF5HT7Y0,S01,OFFmed_OFFstim,20260202_181737,2026-02-02 18:17:51.518214,1,1,probe,DIGIT_RECALL_LINE_5,165,2026-02-02 18:19:46.993689,115.474658,0.265263,,5,,,,keyboard,next recall question,"{""value"":5,""note"":""next recall question"",""pd_used"":1}",1,0.004237,236.007695,1
Sergio_G01_CNS-LLF5HT7Y0,S01,OFFmed_OFFstim,20260202_181737,2026-02-02 18:17:51.518214,1,1,probe,PROBE_DIGIT_OK_5,71,2026-02-02 18:19:47.725678,115.739921,0.471245,11.099263,slot#5,NaN,,,keyboard,probe_digit#5,"{""value"":""slot#5"",""entered"":null,""rt"":11.099263400014024,""note"":""probe_digit#5""}",1,0.004237,236.007695,1
Sergio_G01_CNS-LLF5HT7Y0,S01,OFFmed_OFFstim,20260202_181737,2026-02-02 18:17:51.518214,1,1,probe,DIGIT5_OFF,150,2026-02-02 18:19:47.729626,116.211166,0.000000,,8,,,,keyboard,digit#5 off,"{""value"":8,""note"":""digit#5 off"",""pd_used"":0}",1,0.004237,236.007695,1
Sergio_G01_CNS-LLF5HT7Y0,S01,OFFmed_OFFstim,20260202_181737,2026-02-02 18:17:51.518214,1,1,probe,POSTDIG_FIX5_ON,155,2026-02-02 18:19:47.731277,116.211166,3.301603,,,,,,keyboard,after digit#5,"{""note"":""after digit#5""}",1,0.004237,236.007695,1
Sergio_G01_CNS-LLF5HT7Y0,S01,OFFmed_OFFstim,20260202_181737,2026-02-02 18:17:51.518214,1,1,probe,POSTDIG_FIX5_OFF,160,2026-02-02 18:19:51.032590,119.512769,0.009105,,,,,,keyboard,after digit#5,"{""note"":""after digit#5"",""pd_used"":0}",1,0.004237,236.007695,1
Sergio_G01_CNS-LLF5HT7Y0,S01,OFFmed_OFFstim,20260202_181737,2026-02-02 18:17:51.518214,1,1,probe,PROBE_DONE,73,2026-02-02 18:19:51.040745,119.521874,0.006482,,,,,,keyboard,probe complete,"{""value"":"""",""note"":""probe complete""}",1,0.004237,236.007695,1
Sergio_G01_CNS-LLF5HT7Y0,S01,OFFmed_OFFstim,20260202_181737,2026-02-02 18:17:51.518214,1,1,probe,TRIAL_END,21,2026-02-02 18:19:51.046987,119.528355,0.002808,,,,,,keyboard,,{},1,0.004237,236.007695,1
Sergio_G01_CNS-LLF5HT7Y0,S01,OFFmed_OFFstim,20260202_181737,2026-02-02 18:17:51.518214,1,1,probe,BLOCK_END,11,2026-02-02 18:19:51.049847,119.531164,0.308359,,,,,,keyboard,,{},1,0.004237,236.007695,1
Sergio_G01_CNS-LLF5HT7Y0,S01,OFFmed_OFFstim,20260202_181737,2026-02-02 18:17:51.518214,1,1,probe,SESSION_END,3,2026-02-02 18:19:51.358366,119.839523,NaN,,,,,,keyboard,,{},1,0.004237,236.007695,1
