file_version,subject,condition,session,task_start_time,block,trial,phase,event_name,event_code,wall_clock,t_rel_sec,duration_to_next,rt,value_shown,entered_value,correct,key_name,device,note,json,screen_index,ifi,refresh_hz,pd_used
Sergio_G01_CNS-DDJXM3V64,S01,OFFmed_OFFstim,20260203_131442,2026-02-03 13:15:15.002795,NaN,NaN,,MIC_NOISEFLOOR,6,2026-02-03 13:15:18.304112,3.299336,5.344485,,,,,,keyboard,,{},1,NaN,NaN,1
Sergio_G01_CNS-DDJXM3V64,S01,OFFmed_OFFstim,20260203_131442,2026-02-03 13:15:15.002795,NaN,NaN,,MIC_REC_SPEECH,7,2026-02-03 13:15:23.649539,8.643821,7.033316,,,,,,keyboard,,{},1,NaN,NaN,1
Sergio_G01_CNS-DDJXM3V64,S01,OFFmed_OFFstim,20260203_131442,2026-02-03 13:15:15.002795,NaN,NaN,,SESSION_START,1,2026-02-03 13:15:44.379670,29.375716,0.004102,,,,,,keyboard,,{},1,0.016669,59.992501,1
Sergio_G01_CNS-DDJXM3V64,S01,OFFmed_OFFstim,20260203_131442,2026-02-03 13:15:15.002795,1,NaN,,BLOCK_START,10,2026-02-03 13:15:44.382417,29.379818,0.062191,,,,,,keyboard,,{},1,0.016669,59.992501,1
Sergio_G01_CNS-DDJXM3V64,S01,OFFmed_OFFstim,20260203_131442,2026-02-03 13:15:15.002795,1,0,reading,START_PAGE_ON,4,2026-02-03 13:15:44.443855,29.442009,0.033050,,,,,,keyboard,,"{""pd_used"":0}",1,0.016669,59.992501,1
Sergio_G01_CNS-DDJXM3V64,S01,OFFmed_OFFstim,20260203_131442,2026-02-03 13:15:15.002795,1,0,reading,START_PAGE_ON,4,2026-02-03 13:15:44.443855,29.442009,2.776688,,,,,,keyboard,,"{""pd_used"":0}",1,0.016669,59.992501,1
Sergio_G01_CNS-DDJXM3V64,S01,OFFmed_OFFstim,20260203_131442,2026-02-03 13:15:15.002795,1,0,reading,START_PAGE_ON,4,2026-02-03 13:15:44.443855,29.442009,3.101828,,,,,,keyboard,,"{""pd_used"":0}",1,0.016669,59.992501,1
Sergio_G01_CNS-DDJXM3V64,S01,OFFmed_OFFstim,20260203_131442,2026-02-03 13:15:15.002795,1,0,reading,READING_START,23,2026-02-03 13:15:47.545476,32.543837,0.031526,,,,,,keyboard,,{},1,0.016669,59.992501,1
Sergio_G01_CNS-DDJXM3V64,S01,OFFmed_OFFstim,20260203_131442,2026-02-03 13:15:15.002795,1,0,reading,DIGIT_READ1_ON,101,2026-02-03 13:15:47.577141,32.575363,1.043216,,0,,,,keyboard,digit#1 shown,"{""value"":0,""note"":""digit#1 shown"",""pd_used"":1}",1,0.016669,59.992501,1
Sergio_G01_CNS-DDJXM3V64,S01,OFFmed_OFFstim,20260203_131442,2026-02-03 13:15:15.002795,1,0,reading,PROBE_COUNT_OK_1,71,2026-02-03 13:15:49.234848,33.618579,0.640315,4.233417,slot#1,NaN,,,keyboard,probe_digit#1,"{""value"":""slot#1"",""entered"":null,""rt"":4.233416600007331,""note"":""probe_digit#1""}",1,0.016669,59.992501,1
Sergio_G01_CNS-DDJXM3V64,S01,OFFmed_OFFstim,20260203_131442,2026-02-03 13:15:15.002795,1,0,reading,DIGIT_READ1_OFF,116,2026-02-03 13:15:49.260615,34.258894,0.000000,,0,,,,keyboard,digit#1 off,"{""value"":0,""note"":""digit#1 off"",""pd_used"":0}",1,0.016669,59.992501,1
Sergio_G01_CNS-DDJXM3V64,S01,OFFmed_OFFstim,20260203_131442,2026-02-03 13:15:15.002795,1,0,reading,POSTREAD_FIX1_ON,201,2026-02-03 13:15:49.263896,34.258894,1.632491,,,,,,keyboard,after digit#1,"{""note"":""after digit#1""}",1,0.016669,59.992501,1
Sergio_G01_CNS-DDJXM3V64,S01,OFFmed_OFFstim,20260203_131442,2026-02-03 13:15:15.002795,1,0,reading,POSTREAD_FIX1_OFF,216,2026-02-03 13:15:50.893689,35.891385,0.034501,,,,,,keyboard,after digit#1,"{""note"":""after digit#1"",""pd_used"":0}",1,0.016669,59.992501,1
Sergio_G01_CNS-DDJXM3V64,S01,OFFmed_OFFstim,20260203_131442,2026-02-03 13:15:15.002795,1,0,reading,DIGIT_READ2_ON,102,2026-02-03 13:15:50.927493,35.925886,0.548556,,0,,,,keyboard,digit#2 shown,"{""value"":0,""note"":""digit#2 shown"",""pd_used"":1}",1,0.016669,59.992501,1
Sergio_G01_CNS-DDJXM3V64,S01,OFFmed_OFFstim,20260203_131442,2026-02-03 13:15:15.002795,1,0,reading,PROBE_COUNT_OK_2,71,2026-02-03 13:15:52.066410,36.474442,0.617655,7.089280,slot#2,NaN,,,keyboard,probe_digit#2,"{""value"":""slot#2"",""entered"":null,""rt"":7.0892799000139348,""note"":""probe_digit#2""}",1,0.016669,59.992501,1
Sergio_G01_CNS-DDJXM3V64,S01,OFFmed_OFFstim,20260203_131442,2026-02-03 13:15:15.002795,1,0,reading,DIGIT_READ2_OFF,117,2026-02-03 13:15:52.093892,37.092097,0.000000,,0,,,,keyboard,digit#2 off,"{""value"":0,""note"":""digit#2 off"",""pd_used"":0}",1,0.016669,59.992501,1
Sergio_G01_CNS-DDJXM3V64,S01,OFFmed_OFFstim,20260203_131442,2026-02-03 13:15:15.002795,1,0,reading,POSTREAD_FIX2_ON,202,2026-02-03 13:15:52.095354,37.092097,1.632995,,,,,,keyboard,after digit#2,"{""note"":""after digit#2""}",1,0.016669,59.992501,1
Sergio_G01_CNS-DDJXM3V64,S01,OFFmed_OFFstim,20260203_131442,2026-02-03 13:15:15.002795,1,0,reading,POSTREAD_FIX2_OFF,217,2026-02-03 13:15:53.726809,38.725091,0.033377,,,,,,keyboard,after digit#2,"{""note"":""after digit#2"",""pd_used"":0}",1,0.016669,59.992501,1
Sergio_G01_CNS-DDJXM3V64,S01,OFFmed_OFFstim,20260203_131442,2026-02-03 13:15:15.002795,1,0,reading,DIGIT_READ3_ON,103,2026-02-03 13:15:53.760115,38.758468,0.656683,,5,,,,keyboard,digit#3 shown,"{""value"":5,""note"":""digit#3 shown"",""pd_used"":1}",1,0.016669,59.992501,1
Sergio_G01_CNS-DDJXM3V64,S01,OFFmed_OFFstim,20260203_131442,2026-02-03 13:15:15.002795,1,0,reading,PROBE_COUNT_OK_3,71,2026-02-03 13:15:54.990806,39.415150,0.593604,10.029988,slot#3,NaN,,,keyboard,probe_digit#3,"{""value"":""slot#3"",""entered"":null,""rt"":10.029988299997058,""note"":""probe_digit#3""}",1,0.016669,59.992501,1
Sergio_G01_CNS-DDJXM3V64,S01,OFFmed_OFFstim,20260203_131442,2026-02-03 13:15:15.002795,1,0,reading,DIGIT_READ3_OFF,118,2026-02-03 13:15:55.010314,40.008755,0.000000,,5,,,,keyboard,digit#3 off,"{""value"":5,""note"":""digit#3 off"",""pd_used"":0}",1,0.016669,59.992501,1
Sergio_G01_CNS-DDJXM3V64,S01,OFFmed_OFFstim,20260203_131442,2026-02-03 13:15:15.002795,1,0,reading,POSTREAD_FIX3_ON,203,2026-02-03 13:15:55.011177,40.008755,1.766445,,,,,,keyboard,after digit#3,"{""note"":""after digit#3""}",1,0.016669,59.992501,1
Sergio_G01_CNS-DDJXM3V64,S01,OFFmed_OFFstim,20260203_131442,2026-02-03 13:15:15.002795,1,0,reading,POSTREAD_FIX3_OFF,218,2026-02-03 13:15:56.776982,41.775200,0.033831,,,,,,keyboard,after digit#3,"{""note"":""after digit#3"",""pd_used"":0}",1,0.016669,59.992501,1
Sergio_G01_CNS-DDJXM3V64,S01,OFFmed_OFFstim,20260203_131442,2026-02-03 13:15:15.002795,1,0,reading,DIGIT_READ4_ON,104,2026-02-03 13:15:56.810579,41.809031,0.766833,,0,,,,keyboard,digit#4 shown,"{""value"":0,""note"":""digit#4 shown"",""pd_used"":1}",1,0.016669,59.992501,1
Sergio_G01_CNS-DDJXM3V64,S01,OFFmed_OFFstim,20260203_131442,2026-02-03 13:15:15.002795,1,0,reading,PROBE_COUNT_OK_4,71,2026-02-03 13:15:58.181725,42.575864,0.617985,13.190702,slot#4,NaN,,,keyboard,probe_digit#4,"{""value"":""slot#4"",""entered"":null,""rt"":13.190702200023225,""note"":""probe_digit#4""}",1,0.016669,59.992501,1
Sergio_G01_CNS-DDJXM3V64,S01,OFFmed_OFFstim,20260203_131442,2026-02-03 13:15:15.002795,1,0,reading,DIGIT_READ4_OFF,119,2026-02-03 13:15:58.195623,43.193850,0.000000,,0,,,,keyboard,digit#4 off,"{""value"":0,""note"":""digit#4 off"",""pd_used"":0}",1,0.016669,59.992501,1
Sergio_G01_CNS-DDJXM3V64,S01,OFFmed_OFFstim,20260203_131442,2026-02-03 13:15:15.002795,1,0,reading,POSTREAD_FIX4_ON,204,2026-02-03 13:15:58.196718,43.193850,1.965343,,,,,,keyboard,after digit#4,"{""note"":""after digit#4""}",1,0.016669,59.992501,1
Sergio_G01_CNS-DDJXM3V64,S01,OFFmed_OFFstim,20260203_131442,2026-02-03 13:15:15.002795,1,0,reading,POSTREAD_FIX4_OFF,219,2026-02-03 13:16:00.160931,45.159193,0.033294,,,,,,keyboard,after digit#4,"{""note"":""after digit#4"",""pd_used"":0}",1,0.016669,59.992501,1
Sergio_G01_CNS-DDJXM3V64,S01,OFFmed_OFFstim,20260203_131442,2026-02-03 13:15:15.002795,1,0,reading,DIGIT_READ5_ON,105,2026-02-03 13:16:00.194101,45.192487,0.694174,,7,,,,keyboard,digit#5 shown,"{""value"":7,""note"":""digit#5 shown"",""pd_used"":1}",1,0.016669,59.992501,1
Sergio_G01_CNS-DDJXM3V64,S01,OFFmed_OFFstim,20260203_131442,2026-02-03 13:15:15.002795,1,0,reading,PROBE_COUNT_OK_5,71,2026-02-03 13:16:01.558148,45.886660,0.690309,16.501498,slot#5,NaN,,,keyboard,probe_digit#5,"{""value"":""slot#5"",""entered"":null,""rt"":16.501498199999332,""note"":""probe_digit#5""}",1,0.016669,59.992501,1
Sergio_G01_CNS-DDJXM3V64,S01,OFFmed_OFFstim,20260203_131442,2026-02-03 13:15:15.002795,1,0,reading,DIGIT_READ5_OFF,120,2026-02-03 13:16:01.578622,46.576969,0.000000,,7,,,,keyboard,digit#5 off,"{""value"":7,""note"":""digit#5 off"",""pd_used"":0}",1,0.016669,59.992501,1
Sergio_G01_CNS-DDJXM3V64,S01,OFFmed_OFFstim,20260203_131442,2026-02-03 13:15:15.002795,1,0,reading,POSTREAD_FIX5_ON,205,2026-02-03 13:16:01.579880,46.576969,1.849043,,,,,,keyboard,after digit#5,"{""note"":""after digit#5""}",1,0.016669,59.992501,1
Sergio_G01_CNS-DDJXM3V64,S01,OFFmed_OFFstim,20260203_131442,2026-02-03 13:15:15.002795,1,0,reading,POSTREAD_FIX5_OFF,220,2026-02-03 13:16:03.427760,48.426013,0.035492,,,,,,keyboard,after digit#5,"{""note"":""after digit#5"",""pd_used"":0}",1,0.016669,59.992501,1
Sergio_G01_CNS-DDJXM3V64,S01,OFFmed_OFFstim,20260203_131442,2026-02-03 13:15:15.002795,1,0,reading,DIGIT_READ6_ON,106,2026-02-03 13:16:03.463045,48.461505,0.622321,,9,,,,keyboard,digit#6 shown,"{""value"":9,""note"":""digit#6 shown"",""pd_used"":1}",1,0.016669,59.992501,1
Sergio_G01_CNS-DDJXM3V64,S01,OFFmed_OFFstim,20260203_131442,2026-02-03 13:15:15.002795,1,0,reading,PROBE_COUNT_OK_6,71,2026-02-03 13:16:04.748001,49.083826,0.675948,19.698664,slot#6,NaN,,,keyboard,probe_digit#6,"{""value"":""slot#6"",""entered"":null,""rt"":19.698663700022735,""note"":""probe_digit#6""}",1,0.016669,59.992501,1
Sergio_G01_CNS-DDJXM3V64,S01,OFFmed_OFFstim,20260203_131442,2026-02-03 13:15:15.002795,1,0,reading,DIGIT_READ6_OFF,121,2026-02-03 13:16:04.761340,49.759774,0.000000,,9,,,,keyboard,digit#6 off,"{""value"":9,""note"":""digit#6 off"",""pd_used"":0}",1,0.016669,59.992501,1
Sergio_G01_CNS-DDJXM3V64,S01,OFFmed_OFFstim,20260203_131442,2026-02-03 13:15:15.002795,1,0,reading,POSTREAD_FIX6_ON,206,2026-02-03 13:16:04.762082,49.759774,1.900923,,,,,,keyboard,after digit#6,"{""note"":""after digit#6""}",1,0.016669,59.992501,1
Sergio_G01_CNS-DDJXM3V64,S01,OFFmed_OFFstim,20260203_131442,2026-02-03 13:15:15.002795,1,0,reading,POSTREAD_FIX6_OFF,221,2026-02-03 13:16:06.662482,51.660697,0.032309,,,,,,keyboard,after digit#6,"{""note"":""after digit#6"",""pd_used"":0}",1,0.016669,59.992501,1
Sergio_G01_CNS-DDJXM3V64,S01,OFFmed_OFFstim,20260203_131442,2026-02-03 13:15:15.002795,1,0,reading,DIGIT_READ7_ON,107,2026-02-03 13:16:06.694608,51.693006,0.883069,,2,,,,keyboard,digit#7 shown,"{""value"":2,""note"":""digit#7 shown"",""pd_used"":1}",1,0.016669,59.992501,1
Sergio_G01_CNS-DDJXM3V64,S01,OFFmed_OFFstim,20260203_131442,2026-02-03 13:15:15.002795,1,0,reading,PROBE_COUNT_OK_7,71,2026-02-03 13:16:08.177207,52.576075,0.617495,23.190913,slot#7,NaN,,,keyboard,probe_digit#7,"{""value"":""slot#7"",""entered"":null,""rt"":23.19091330000083,""note"":""probe_digit#7""}",1,0.016669,59.992501,1
Sergio_G01_CNS-DDJXM3V64,S01,OFFmed_OFFstim,20260203_131442,2026-02-03 13:15:15.002795,1,0,reading,DIGIT_READ7_OFF,122,2026-02-03 13:16:08.195240,53.193570,0.000000,,2,,,,keyboard,digit#7 off,"{""value"":2,""note"":""digit#7 off"",""pd_used"":0}",1,0.016669,59.992501,1
Sergio_G01_CNS-DDJXM3V64,S01,OFFmed_OFFstim,20260203_131442,2026-02-03 13:15:15.002795,1,0,reading,POSTREAD_FIX7_ON,207,2026-02-03 13:16:08.196068,53.193570,1.632807,,,,,,keyboard,after digit#7,"{""note"":""after digit#7""}",1,0.016669,59.992501,1
Sergio_G01_CNS-DDJXM3V64,S01,OFFmed_OFFstim,20260203_131442,2026-02-03 13:15:15.002795,1,0,reading,POSTREAD_FIX7_OFF,222,2026-02-03 13:16:09.828079,54.826377,0.034069,,,,,,keyboard,after digit#7,"{""note"":""after digit#7"",""pd_used"":0}",1,0.016669,59.992501,1
Sergio_G01_CNS-DDJXM3V64,S01,OFFmed_OFFstim,20260203_131442,2026-02-03 13:15:15.002795,1,0,reading,DIGIT_READ8_ON,108,2026-02-03 13:16:09.862016,54.860446,0.885261,,1,,,,keyboard,digit#8 shown,"{""value"":1,""note"":""digit#8 shown"",""pd_used"":1}",1,0.016669,59.992501,1
Sergio_G01_CNS-DDJXM3V64,S01,OFFmed_OFFstim,20260203_131442,2026-02-03 13:15:15.002795,1,0,reading,PROBE_COUNT_OK_8,71,2026-02-03 13:16:11.389674,55.745707,0.664863,26.360545,slot#8,NaN,,,keyboard,probe_digit#8,"{""value"":""slot#8"",""entered"":null,""rt"":26.360544800001662,""note"":""probe_digit#8""}",1,0.016669,59.992501,1
Sergio_G01_CNS-DDJXM3V64,S01,OFFmed_OFFstim,20260203_131442,2026-02-03 13:15:15.002795,1,0,reading,DIGIT_READ8_OFF,123,2026-02-03 13:16:11.412247,56.410570,0.000000,,1,,,,keyboard,digit#8 off,"{""value"":1,""note"":""digit#8 off"",""pd_used"":0}",1,0.016669,59.992501,1
Sergio_G01_CNS-DDJXM3V64,S01,OFFmed_OFFstim,20260203_131442,2026-02-03 13:15:15.002795,1,0,reading,POSTREAD_FIX8_ON,208,2026-02-03 13:16:11.413090,56.410570,1.682567,,,,,,keyboard,after digit#8,"{""note"":""after digit#8""}",1,0.016669,59.992501,1
Sergio_G01_CNS-DDJXM3V64,S01,OFFmed_OFFstim,20260203_131442,2026-02-03 13:15:15.002795,1,0,reading,POSTREAD_FIX8_OFF,223,2026-02-03 13:16:13.094875,58.093137,0.033902,,,,,,keyboard,after digit#8,"{""note"":""after digit#8"",""pd_used"":0}",1,0.016669,59.992501,1
Sergio_G01_CNS-DDJXM3V64,S01,OFFmed_OFFstim,20260203_131442,2026-02-03 13:15:15.002795,1,0,reading,DIGIT_READ9_ON,109,2026-02-03 13:16:13.128851,58.127038,0.889134,,8,,,,keyboard,digit#9 shown,"{""value"":8,""note"":""digit#9 shown"",""pd_used"":1}",1,0.016669,59.992501,1
Sergio_G01_CNS-DDJXM3V64,S01,OFFmed_OFFstim,20260203_131442,2026-02-03 13:15:15.002795,1,0,reading,PROBE_COUNT_OK_9,71,2026-02-03 13:16:14.569737,59.016172,0.577627,29.631010,slot#9,NaN,,,keyboard,probe_digit#9,"{""value"":""slot#9"",""entered"":null,""rt"":29.631009800010361,""note"":""probe_digit#9""}",1,0.016669,59.992501,1
Sergio_G01_CNS-DDJXM3V64,S01,OFFmed_OFFstim,20260203_131442,2026-02-03 13:15:15.002795,1,0,reading,DIGIT_READ9_OFF,124,2026-02-03 13:16:14.595445,59.593799,0.000000,,8,,,,keyboard,digit#9 off,"{""value"":8,""note"":""digit#9 off"",""pd_used"":0}",1,0.016669,59.992501,1
Sergio_G01_CNS-DDJXM3V64,S01,OFFmed_OFFstim,20260203_131442,2026-02-03 13:15:15.002795,1,0,reading,POSTREAD_FIX9_ON,209,2026-02-03 13:16:14.596255,59.593799,1.697384,,,,,,keyboard,after digit#9,"{""note"":""after digit#9""}",1,0.016669,59.992501,1
Sergio_G01_CNS-DDJXM3V64,S01,OFFmed_OFFstim,20260203_131442,2026-02-03 13:15:15.002795,1,0,reading,POSTREAD_FIX9_OFF,224,2026-02-03 13:16:16.293131,61.291183,0.033339,,,,,,keyboard,after digit#9,"{""note"":""after digit#9"",""pd_used"":0}",1,0.016669,59.992501,1
Sergio_G01_CNS-DDJXM3V64,S01,OFFmed_OFFstim,20260203_131442,2026-02-03 13:15:15.002795,1,0,reading,DIGIT_READ10_ON,110,2026-02-03 13:16:16.326108,61.324522,0.982834,,1,,,,keyboard,digit#10 shown,"{""value"":1,""note"":""digit#10 shown"",""pd_used"":1}",1,0.016669,59.992501,1
Sergio_G01_CNS-DDJXM3V64,S01,OFFmed_OFFstim,20260203_131442,2026-02-03 13:15:15.002795,1,0,reading,PROBE_COUNT_OK_10,71,2026-02-03 13:16:17.984155,62.307355,0.684002,32.922193,slot#10,NaN,,,keyboard,probe_digit#10,"{""value"":""slot#10"",""entered"":null,""rt"":32.922193000005791,""note"":""probe_digit#10""}",1,0.016669,59.992501,1
Sergio_G01_CNS-DDJXM3V64,S01,OFFmed_OFFstim,20260203_131442,2026-02-03 13:15:15.002795,1,0,reading,DIGIT_READ10_OFF,125,2026-02-03 13:16:17.992954,62.991357,0.000000,,1,,,,keyboard,digit#10 off,"{""value"":1,""note"":""digit#10 off"",""pd_used"":0}",1,0.016669,59.992501,1
Sergio_G01_CNS-DDJXM3V64,S01,OFFmed_OFFstim,20260203_131442,2026-02-03 13:15:15.002795,1,0,reading,POSTREAD_FIX10_ON,210,2026-02-03 13:16:17.993766,62.991357,1.866650,,,,,,keyboard,after digit#10,"{""note"":""after digit#10""}",1,0.016669,59.992501,1
Sergio_G01_CNS-DDJXM3V64,S01,OFFmed_OFFstim,20260203_131442,2026-02-03 13:15:15.002795,1,0,reading,POSTREAD_FIX10_OFF,225,2026-02-03 13:16:19.859788,64.858007,0.033373,,,,,,keyboard,after digit#10,"{""note"":""after digit#10"",""pd_used"":0}",1,0.016669,59.992501,1
Sergio_G01_CNS-DDJXM3V64,S01,OFFmed_OFFstim,20260203_131442,2026-02-03 13:15:15.002795,1,0,reading,DIGIT_READ11_ON,111,2026-02-03 13:16:19.893116,64.891380,0.865540,,9,,,,keyboard,digit#11 shown,"{""value"":9,""note"":""digit#11 shown"",""pd_used"":1}",1,0.016669,59.992501,1
Sergio_G01_CNS-DDJXM3V64,S01,OFFmed_OFFstim,20260203_131442,2026-02-03 13:15:15.002795,1,0,reading,PROBE_COUNT_OK_11,71,2026-02-03 13:16:21.526446,65.756920,0.784740,36.371758,slot#11,NaN,,,keyboard,probe_digit#11,"{""value"":""slot#11"",""entered"":null,""rt"":36.37175770002068,""note"":""probe_digit#11""}",1,0.016669,59.992501,1
Sergio_G01_CNS-DDJXM3V64,S01,OFFmed_OFFstim,20260203_131442,2026-02-03 13:15:15.002795,1,0,reading,DIGIT_READ11_OFF,126,2026-02-03 13:16:21.543292,66.541660,0.000000,,9,,,,keyboard,digit#11 off,"{""value"":9,""note"":""digit#11 off"",""pd_used"":0}",1,0.016669,59.992501,1
Sergio_G01_CNS-DDJXM3V64,S01,OFFmed_OFFstim,20260203_131442,2026-02-03 13:15:15.002795,1,0,reading,POSTREAD_FIX11_ON,211,2026-02-03 13:16:21.544126,66.541660,1.933444,,,,,,keyboard,after digit#11,"{""note"":""after digit#11""}",1,0.016669,59.992501,1
Sergio_G01_CNS-DDJXM3V64,S01,OFFmed_OFFstim,20260203_131442,2026-02-03 13:15:15.002795,1,0,reading,POSTREAD_FIX11_OFF,226,2026-02-03 13:16:23.476920,68.475104,0.033328,,,,,,keyboard,after digit#11,"{""note"":""after digit#11"",""pd_used"":0}",1,0.016669,59.992501,1
Sergio_G01_CNS-DDJXM3V64,S01,OFFmed_OFFstim,20260203_131442,2026-02-03 13:15:15.002795,1,0,reading,DIGIT_READ12_ON,112,2026-02-03 13:16:23.510038,68.508433,0.759048,,1,,,,keyboard,digit#12 shown,"{""value"":1,""note"":""digit#12 shown"",""pd_used"":1}",1,0.016669,59.992501,1
Sergio_G01_CNS-DDJXM3V64,S01,OFFmed_OFFstim,20260203_131442,2026-02-03 13:15:15.002795,1,0,reading,PROBE_COUNT_OK_12,71,2026-02-03 13:16:25.114340,69.267481,0.859437,39.882318,slot#12,NaN,,,keyboard,probe_digit#12,"{""value"":""slot#12"",""entered"":null,""rt"":39.882318400021177,""note"":""probe_digit#12""}",1,0.016669,59.992501,1
Sergio_G01_CNS-DDJXM3V64,S01,OFFmed_OFFstim,20260203_131442,2026-02-03 13:15:15.002795,1,0,reading,DIGIT_READ12_OFF,127,2026-02-03 13:16:25.128484,70.126918,0.000000,,1,,,,keyboard,digit#12 off,"{""value"":1,""note"":""digit#12 off"",""pd_used"":0}",1,0.016669,59.992501,1
Sergio_G01_CNS-DDJXM3V64,S01,OFFmed_OFFstim,20260203_131442,2026-02-03 13:15:15.002795,1,0,reading,POSTREAD_FIX12_ON,212,2026-02-03 13:16:25.129281,70.126918,1.800776,,,,,,keyboard,after digit#12,"{""note"":""after digit#12""}",1,0.016669,59.992501,1
Sergio_G01_CNS-DDJXM3V64,S01,OFFmed_OFFstim,20260203_131442,2026-02-03 13:15:15.002795,1,0,reading,POSTREAD_FIX12_OFF,227,2026-02-03 13:16:26.929412,71.927694,0.033199,,,,,,keyboard,after digit#12,"{""note"":""after digit#12"",""pd_used"":0}",1,0.016669,59.992501,1
Sergio_G01_CNS-DDJXM3V64,S01,OFFmed_OFFstim,20260203_131442,2026-02-03 13:15:15.002795,1,0,reading,DIGIT_READ13_ON,113,2026-02-03 13:16:26.962468,71.960893,0.746671,,8,,,,keyboard,digit#13 shown,"{""value"":8,""note"":""digit#13 shown"",""pd_used"":1}",1,0.016669,59.992501,1
Sergio_G01_CNS-DDJXM3V64,S01,OFFmed_OFFstim,20260203_131442,2026-02-03 13:15:15.002795,1,0,reading,PROBE_COUNT_OK_13,71,2026-02-03 13:16:28.289513,72.707564,0.606640,43.322402,slot#13,NaN,,,keyboard,probe_digit#13,"{""value"":""slot#13"",""entered"":null,""rt"":43.322402000019792,""note"":""probe_digit#13""}",1,0.016669,59.992501,1
Sergio_G01_CNS-DDJXM3V64,S01,OFFmed_OFFstim,20260203_131442,2026-02-03 13:15:15.002795,1,0,reading,DIGIT_READ13_OFF,128,2026-02-03 13:16:28.316061,73.314204,0.000000,,8,,,,keyboard,digit#13 off,"{""value"":8,""note"":""digit#13 off"",""pd_used"":0}",1,0.016669,59.992501,1
Sergio_G01_CNS-DDJXM3V64,S01,OFFmed_OFFstim,20260203_131442,2026-02-03 13:15:15.002795,1,0,reading,POSTREAD_FIX13_ON,213,2026-02-03 13:16:28.316888,73.314204,1.563107,,,,,,keyboard,after digit#13,"{""note"":""after digit#13""}",1,0.016669,59.992501,1
Sergio_G01_CNS-DDJXM3V64,S01,OFFmed_OFFstim,20260203_131442,2026-02-03 13:15:15.002795,1,0,reading,POSTREAD_FIX13_OFF,228,2026-02-03 13:16:29.879104,74.877311,0.036592,,,,,,keyboard,after digit#13,"{""note"":""after digit#13"",""pd_used"":0}",1,0.016669,59.992501,1
Sergio_G01_CNS-DDJXM3V64,S01,OFFmed_OFFstim,20260203_131442,2026-02-03 13:15:15.002795,1,0,reading,DIGIT_READ14_ON,114,2026-02-03 13:16:29.915582,74.913903,0.875490,,4,,,,keyboard,digit#14 shown,"{""value"":4,""note"":""digit#14 shown"",""pd_used"":1}",1,0.016669,59.992501,1
Sergio_G01_CNS-DDJXM3V64,S01,OFFmed_OFFstim,20260203_131442,2026-02-03 13:15:15.002795,1,0,reading,PROBE_COUNT_OK_14,71,2026-02-03 13:16:31.451826,75.789393,0.675196,46.404231,slot#14,NaN,,,keyboard,probe_digit#14,"{""value"":""slot#14"",""entered"":null,""rt"":46.40423070001998,""note"":""probe_digit#14""}",1,0.016669,59.992501,1
Sergio_G01_CNS-DDJXM3V64,S01,OFFmed_OFFstim,20260203_131442,2026-02-03 13:15:15.002795,1,0,reading,DIGIT_READ14_OFF,129,2026-02-03 13:16:31.466188,76.464589,0.000000,,4,,,,keyboard,digit#14 off,"{""value"":4,""note"":""digit#14 off"",""pd_used"":0}",1,0.016669,59.992501,1
Sergio_G01_CNS-DDJXM3V64,S01,OFFmed_OFFstim,20260203_131442,2026-02-03 13:15:15.002795,1,0,reading,POSTREAD_FIX14_ON,214,2026-02-03 13:16:31.466885,76.464589,1.929954,,,,,,keyboard,after digit#14,"{""note"":""after digit#14""}",1,0.016669,59.992501,1
Sergio_G01_CNS-DDJXM3V64,S01,OFFmed_OFFstim,20260203_131442,2026-02-03 13:15:15.002795,1,0,reading,POSTREAD_FIX14_OFF,229,2026-02-03 13:16:33.396287,78.394543,0.033605,,,,,,keyboard,after digit#14,"{""note"":""after digit#14"",""pd_used"":0}",1,0.016669,59.992501,1
Sergio_G01_CNS-DDJXM3V64,S01,OFFmed_OFFstim,20260203_131442,2026-02-03 13:15:15.002795,1,0,reading,DIGIT_READ15_ON,115,2026-02-03 13:16:33.429857,78.428147,0.837382,,3,,,,keyboard,digit#15 shown,"{""value"":3,""note"":""digit#15 shown"",""pd_used"":1}",1,0.016669,59.992501,1
Sergio_G01_CNS-DDJXM3V64,S01,OFFmed_OFFstim,20260203_131442,2026-02-03 13:15:15.002795,1,0,reading,PROBE_COUNT_OK_15,71,2026-02-03 13:16:34.887458,79.265529,0.630326,49.880367,slot#15,NaN,,,keyboard,probe_digit#15,"{""value"":""slot#15"",""entered"":null,""rt"":49.880366900004447,""note"":""probe_digit#15""}",1,0.016669,59.992501,1
Sergio_G01_CNS-DDJXM3V64,S01,OFFmed_OFFstim,20260203_131442,2026-02-03 13:15:15.002795,1,0,reading,DIGIT_READ15_OFF,130,2026-02-03 13:16:34.897403,79.895855,0.000000,,3,,,,keyboard,digit#15 off,"{""value"":3,""note"":""digit#15 off"",""pd_used"":0}",1,0.016669,59.992501,1
Sergio_G01_CNS-DDJXM3V64,S01,OFFmed_OFFstim,20260203_131442,2026-02-03 13:15:15.002795,1,0,reading,POSTREAD_FIX15_ON,215,2026-02-03 13:16:34.898138,79.895855,3.465531,,,,,,keyboard,after digit#15,"{""note"":""after digit#15""}",1,0.016669,59.992501,1
Sergio_G01_CNS-DDJXM3V64,S01,OFFmed_OFFstim,20260203_131442,2026-02-03 13:15:15.002795,1,0,reading,POSTREAD_FIX15_OFF,230,2026-02-03 13:16:38.363090,83.361386,0.017089,,,,,,keyboard,after digit#15,"{""note"":""after digit#15"",""pd_used"":0}",1,0.016669,59.992501,1
Sergio_G01_CNS-DDJXM3V64,S01,OFFmed_OFFstim,20260203_131442,2026-02-03 13:15:15.002795,1,0,reading,READING_END,24,2026-02-03 13:16:38.379969,83.378475,0.016751,,,,,,keyboard,,{},1,0.016669,59.992501,1
Sergio_G01_CNS-DDJXM3V64,S01,OFFmed_OFFstim,20260203_131442,2026-02-03 13:15:15.002795,1,0,reading,START_PAGE_ON,4,2026-02-03 13:16:38.397178,83.395226,0.016316,,,,,,keyboard,,"{""pd_used"":0}",1,0.016669,59.992501,1
Sergio_G01_CNS-DDJXM3V64,S01,OFFmed_OFFstim,20260203_131442,2026-02-03 13:15:15.002795,1,0,reading,START_PAGE_ON,4,2026-02-03 13:16:38.397178,83.395226,2.135510,,,,,,keyboard,,"{""pd_used"":0}",1,0.016669,59.992501,1
Sergio_G01_CNS-DDJXM3V64,S01,OFFmed_OFFstim,20260203_131442,2026-02-03 13:15:15.002795,1,0,reading,START_PAGE_ON,4,2026-02-03 13:16:38.397178,83.395226,2.451257,,,,,,keyboard,,"{""pd_used"":0}",1,0.016669,59.992501,1
Sergio_G01_CNS-DDJXM3V64,S01,OFFmed_OFFstim,20260203_131442,2026-02-03 13:15:15.002795,1,1,reading,TRIAL_CHANGE,22,2026-02-03 13:16:40.849443,85.846484,0.003410,,,,,,keyboard,trial transition,"{""note"":""trial transition""}",1,0.016669,59.992501,1
Sergio_G01_CNS-DDJXM3V64,S01,OFFmed_OFFstim,20260203_131442,2026-02-03 13:15:15.002795,1,1,reading,TRIAL_START,20,2026-02-03 13:16:40.851450,85.849894,0.011994,,,,,,keyboard,,{},1,0.016669,59.992501,1
Sergio_G01_CNS-DDJXM3V64,S01,OFFmed_OFFstim,20260203_131442,2026-02-03 13:15:15.002795,1,1,fix1,FIX1_ON,30,2026-02-03 13:16:40.863494,85.861888,3.183235,,,,,,keyboard,,"{""pd_used"":0}",1,0.016669,59.992501,1
Sergio_G01_CNS-DDJXM3V64,S01,OFFmed_OFFstim,20260203_131442,2026-02-03 13:15:15.002795,1,1,fix1,FIX1_OFF,31,2026-02-03 13:16:44.046869,89.045123,0.018273,,,,,,keyboard,,"{""pd_used"":0}",1,0.016669,59.992501,1
Sergio_G01_CNS-DDJXM3V64,S01,OFFmed_OFFstim,20260203_131442,2026-02-03 13:15:15.002795,1,1,digit,DIGIT1_ON,141,2026-02-03 13:16:44.065101,89.063396,0.515457,,5,,,,keyboard,digit#1 shown,"{""value"":5,""note"":""digit#1 shown"",""pd_used"":1}",1,0.016669,59.992501,1
Sergio_G01_CNS-DDJXM3V64,S01,OFFmed_OFFstim,20260203_131442,2026-02-03 13:15:15.002795,1,1,digit,DIGIT1_OFF,146,2026-02-03 13:16:44.581140,89.578853,0.000000,,5,,,,keyboard,digit#1 off,"{""value"":5,""note"":""digit#1 off"",""pd_used"":0}",1,0.016669,59.992501,1
Sergio_G01_CNS-DDJXM3V64,S01,OFFmed_OFFstim,20260203_131442,2026-02-03 13:15:15.002795,1,1,digit,POSTDIG_FIX1_ON,151,2026-02-03 13:16:44.582578,89.578853,1.902347,,,,,,keyboard,after digit#1,"{""note"":""after digit#1""}",1,0.016669,59.992501,1
Sergio_G01_CNS-DDJXM3V64,S01,OFFmed_OFFstim,20260203_131442,2026-02-03 13:15:15.002795,1,1,digit,POSTDIG_FIX1_OFF,156,2026-02-03 13:16:46.482898,91.481200,0.014900,,,,,,keyboard,after digit#1,"{""note"":""after digit#1"",""pd_used"":0}",1,0.016669,59.992501,1
Sergio_G01_CNS-DDJXM3V64,S01,OFFmed_OFFstim,20260203_131442,2026-02-03 13:15:15.002795,1,1,digit,DIGIT2_ON,142,2026-02-03 13:16:46.497688,91.496099,0.516270,,0,,,,keyboard,digit#2 shown,"{""value"":0,""note"":""digit#2 shown"",""pd_used"":1}",1,0.016669,59.992501,1
Sergio_G01_CNS-DDJXM3V64,S01,OFFmed_OFFstim,20260203_131442,2026-02-03 13:15:15.002795,1,1,digit,DIGIT2_OFF,147,2026-02-03 13:16:47.014085,92.012369,0.000000,,0,,,,keyboard,digit#2 off,"{""value"":0,""note"":""digit#2 off"",""pd_used"":0}",1,0.016669,59.992501,1
Sergio_G01_CNS-DDJXM3V64,S01,OFFmed_OFFstim,20260203_131442,2026-02-03 13:15:15.002795,1,1,digit,POSTDIG_FIX2_ON,152,2026-02-03 13:16:47.015100,92.012369,1.716482,,,,,,keyboard,after digit#2,"{""note"":""after digit#2""}",1,0.016669,59.992501,1
Sergio_G01_CNS-DDJXM3V64,S01,OFFmed_OFFstim,20260203_131442,2026-02-03 13:15:15.002795,1,1,digit,POSTDIG_FIX2_OFF,157,2026-02-03 13:16:48.730578,93.728851,0.019775,,,,,,keyboard,after digit#2,"{""note"":""after digit#2"",""pd_used"":0}",1,0.016669,59.992501,1
Sergio_G01_CNS-DDJXM3V64,S01,OFFmed_OFFstim,20260203_131442,2026-02-03 13:15:15.002795,1,1,digit,DIGIT3_ON,143,2026-02-03 13:16:48.750309,93.748626,0.513673,,4,,,,keyboard,digit#3 shown,"{""value"":4,""note"":""digit#3 shown"",""pd_used"":1}",1,0.016669,59.992501,1
Sergio_G01_CNS-DDJXM3V64,S01,OFFmed_OFFstim,20260203_131442,2026-02-03 13:15:15.002795,1,1,digit,DIGIT3_OFF,148,2026-02-03 13:16:49.264063,94.262299,0.000000,,4,,,,keyboard,digit#3 off,"{""value"":4,""note"":""digit#3 off"",""pd_used"":0}",1,0.016669,59.992501,1
Sergio_G01_CNS-DDJXM3V64,S01,OFFmed_OFFstim,20260203_131442,2026-02-03 13:15:15.002795,1,1,digit,POSTDIG_FIX3_ON,153,2026-02-03 13:16:49.265112,94.262299,1.816921,,,,,,keyboard,after digit#3,"{""note"":""after digit#3""}",1,0.016669,59.992501,1
Sergio_G01_CNS-DDJXM3V64,S01,OFFmed_OFFstim,20260203_131442,2026-02-03 13:15:15.002795,1,1,digit,POSTDIG_FIX3_OFF,158,2026-02-03 13:16:51.081259,96.079220,0.016803,,,,,,keyboard,after digit#3,"{""note"":""after digit#3"",""pd_used"":0}",1,0.016669,59.992501,1
Sergio_G01_CNS-DDJXM3V64,S01,OFFmed_OFFstim,20260203_131442,2026-02-03 13:15:15.002795,1,1,digit,DIGIT4_ON,144,2026-02-03 13:16:51.097603,96.096023,0.516406,,9,,,,keyboard,digit#4 shown,"{""value"":9,""note"":""digit#4 shown"",""pd_used"":1}",1,0.016669,59.992501,1
Sergio_G01_CNS-DDJXM3V64,S01,OFFmed_OFFstim,20260203_131442,2026-02-03 13:15:15.002795,1,1,digit,DIGIT4_OFF,149,2026-02-03 13:16:51.614306,96.612429,0.000000,,9,,,,keyboard,digit#4 off,"{""value"":9,""note"":""digit#4 off"",""pd_used"":0}",1,0.016669,59.992501,1
Sergio_G01_CNS-DDJXM3V64,S01,OFFmed_OFFstim,20260203_131442,2026-02-03 13:15:15.002795,1,1,digit,POSTDIG_FIX4_ON,154,2026-02-03 13:16:51.615365,96.612429,1.899952,,,,,,keyboard,after digit#4,"{""note"":""after digit#4""}",1,0.016669,59.992501,1
Sergio_G01_CNS-DDJXM3V64,S01,OFFmed_OFFstim,20260203_131442,2026-02-03 13:15:15.002795,1,1,digit,POSTDIG_FIX4_OFF,159,2026-02-03 13:16:53.514145,98.512381,0.018027,,,,,,keyboard,after digit#4,"{""note"":""after digit#4"",""pd_used"":0}",1,0.016669,59.992501,1
Sergio_G01_CNS-DDJXM3V64,S01,OFFmed_OFFstim,20260203_131442,2026-02-03 13:15:15.002795,1,1,digit,DIGIT5_ON,145,2026-02-03 13:16:53.532082,98.530408,0.515722,,4,,,,keyboard,digit#5 shown,"{""value"":4,""note"":""digit#5 shown"",""pd_used"":1}",1,0.016669,59.992501,1
Sergio_G01_CNS-DDJXM3V64,S01,OFFmed_OFFstim,20260203_131442,2026-02-03 13:15:15.002795,1,1,digit,DIGIT5_OFF,150,2026-02-03 13:16:54.047866,99.046131,0.000000,,4,,,,keyboard,digit#5 off,"{""value"":4,""note"":""digit#5 off"",""pd_used"":0}",1,0.016669,59.992501,1
Sergio_G01_CNS-DDJXM3V64,S01,OFFmed_OFFstim,20260203_131442,2026-02-03 13:15:15.002795,1,1,digit,POSTDIG_FIX5_ON,155,2026-02-03 13:16:54.049369,99.046131,3.400087,,,,,,keyboard,after digit#5,"{""note"":""after digit#5""}",1,0.016669,59.992501,1
Sergio_G01_CNS-DDJXM3V64,S01,OFFmed_OFFstim,20260203_131442,2026-02-03 13:15:15.002795,1,1,digit,POSTDIG_FIX5_OFF,160,2026-02-03 13:16:57.448042,102.446218,0.018987,,,,,,keyboard,after digit#5,"{""note"":""after digit#5"",""pd_used"":0}",1,0.016669,59.992501,1
Sergio_G01_CNS-DDJXM3V64,S01,OFFmed_OFFstim,20260203_131442,2026-02-03 13:15:15.002795,1,1,distractor,DISTRACTOR_ON,50,2026-02-03 13:16:57.466925,102.465205,1.076805,,4+5=12,,,,keyboard,,"{""value"":""4+5=12"",""isCorrectTruth"":false,""trueSum"":9,""pd_used"":1}",1,0.016669,59.992501,1
Sergio_G01_CNS-DDJXM3V64,S01,OFFmed_OFFstim,20260203_131442,2026-02-03 13:15:15.002795,1,1,distractor,DISTRACTOR_ANS,51,2026-02-03 13:16:59.210395,103.542010,0.000000,1.076805,4+5=12,F,1,,keyboard,key= (False),"{""value"":""4+5=12"",""entered"":""F"",""rt"":1.0768049999896903,""correct"":1,""note"":""key= (False)"",""truth"":false,""trueSum"":9,""shownSum"":12,""a"":4,""b"":5}",1,0.016669,59.992501,1
Sergio_G01_CNS-DDJXM3V64,S01,OFFmed_OFFstim,20260203_131442,2026-02-03 13:15:15.002795,1,1,distractor,ANS_CORRECT,100,2026-02-03 13:16:59.212289,103.542010,0.688229,,,,,,keyboard,,{},1,0.016669,59.992501,1
Sergio_G01_CNS-DDJXM3V64,S01,OFFmed_OFFstim,20260203_131442,2026-02-03 13:15:15.002795,1,1,distractor,DISTRACTOR_OFF,52,2026-02-03 13:16:59.231862,104.230239,0.000000,,,,,,keyboard,,"{""pd_used"":0}",1,0.016669,59.992501,1
Sergio_G01_CNS-DDJXM3V64,S01,OFFmed_OFFstim,20260203_131442,2026-02-03 13:15:15.002795,1,1,distractor,FIX2_ON,60,2026-02-03 13:16:59.232751,104.230239,3.033421,,,,,,keyboard,immediate after response,"{""note"":""immediate after response""}",1,0.016669,59.992501,1
Sergio_G01_CNS-DDJXM3V64,S01,OFFmed_OFFstim,20260203_131442,2026-02-03 13:15:15.002795,1,1,fix2,FIX2_OFF,61,2026-02-03 13:17:02.265384,107.263660,0.017969,,,,,,keyboard,,"{""pd_used"":0}",1,0.016669,59.992501,1
Sergio_G01_CNS-DDJXM3V64,S01,OFFmed_OFFstim,20260203_131442,2026-02-03 13:15:15.002795,1,1,probe,DIGIT_RECALL_LINE_1,161,2026-02-03 13:17:02.283255,107.281629,0.602516,,1,,,,keyboard,first recall question,"{""value"":1,""note"":""first recall question"",""pd_used"":1}",1,0.016669,59.992501,1
Sergio_G01_CNS-DDJXM3V64,S01,OFFmed_OFFstim,20260203_131442,2026-02-03 13:15:15.002795,1,1,probe,PROBE_DIGIT_OK_1,71,2026-02-03 13:17:03.518416,107.884145,0.647030,0.619242,slot#1,NaN,,,keyboard,probe_digit#1,"{""value"":""slot#1"",""entered"":null,""rt"":0.61924209998687729,""note"":""probe_digit#1""}",1,0.016669,59.992501,1
Sergio_G01_CNS-DDJXM3V64,S01,OFFmed_OFFstim,20260203_131442,2026-02-03 13:15:15.002795,1,1,probe,DIGIT1_OFF,146,2026-02-03 13:17:03.532752,108.531175,0.000000,,4,,,,keyboard,digit#1 off,"{""value"":4,""note"":""digit#1 off"",""pd_used"":0}",1,0.016669,59.992501,1
Sergio_G01_CNS-DDJXM3V64,S01,OFFmed_OFFstim,20260203_131442,2026-02-03 13:15:15.002795,1,1,probe,POSTDIG_FIX1_ON,151,2026-02-03 13:17:03.533736,108.531175,1.832414,,,,,,keyboard,after digit#1,"{""note"":""after digit#1""}",1,0.016669,59.992501,1
Sergio_G01_CNS-DDJXM3V64,S01,OFFmed_OFFstim,20260203_131442,2026-02-03 13:15:15.002795,1,1,probe,POSTDIG_FIX1_OFF,156,2026-02-03 13:17:05.365364,110.363589,0.034072,,,,,,keyboard,after digit#1,"{""note"":""after digit#1"",""pd_used"":0}",1,0.016669,59.992501,1
Sergio_G01_CNS-DDJXM3V64,S01,OFFmed_OFFstim,20260203_131442,2026-02-03 13:15:15.002795,1,1,probe,DIGIT_RECALL_LINE_2,162,2026-02-03 13:17:05.399217,110.397661,0.363051,,2,,,,keyboard,next recall question,"{""value"":2,""note"":""next recall question"",""pd_used"":1}",1,0.016669,59.992501,1
Sergio_G01_CNS-DDJXM3V64,S01,OFFmed_OFFstim,20260203_131442,2026-02-03 13:15:15.002795,1,1,probe,PROBE_DIGIT_OK_2,71,2026-02-03 13:17:06.498021,110.760712,0.752968,3.495809,slot#2,NaN,,,keyboard,probe_digit#2,"{""value"":""slot#2"",""entered"":null,""rt"":3.4958091999869794,""note"":""probe_digit#2""}",1,0.016669,59.992501,1
Sergio_G01_CNS-DDJXM3V64,S01,OFFmed_OFFstim,20260203_131442,2026-02-03 13:15:15.002795,1,1,probe,DIGIT2_OFF,147,2026-02-03 13:17:06.515281,111.513680,0.000000,,4,,,,keyboard,digit#2 off,"{""value"":4,""note"":""digit#2 off"",""pd_used"":0}",1,0.016669,59.992501,1
Sergio_G01_CNS-DDJXM3V64,S01,OFFmed_OFFstim,20260203_131442,2026-02-03 13:15:15.002795,1,1,probe,POSTDIG_FIX2_ON,152,2026-02-03 13:17:06.516306,111.513680,1.515984,,,,,,keyboard,after digit#2,"{""note"":""after digit#2""}",1,0.016669,59.992501,1
Sergio_G01_CNS-DDJXM3V64,S01,OFFmed_OFFstim,20260203_131442,2026-02-03 13:15:15.002795,1,1,probe,POSTDIG_FIX2_OFF,157,2026-02-03 13:17:08.031438,113.029664,0.033978,,,,,,keyboard,after digit#2,"{""note"":""after digit#2"",""pd_used"":0}",1,0.016669,59.992501,1
Sergio_G01_CNS-DDJXM3V64,S01,OFFmed_OFFstim,20260203_131442,2026-02-03 13:15:15.002795,1,1,probe,DIGIT_RECALL_LINE_3,163,2026-02-03 13:17:08.065291,113.063642,0.523258,,3,,,,keyboard,next recall question,"{""value"":3,""note"":""next recall question"",""pd_used"":1}",1,0.016669,59.992501,1
Sergio_G01_CNS-DDJXM3V64,S01,OFFmed_OFFstim,20260203_131442,2026-02-03 13:15:15.002795,1,1,probe,PROBE_DIGIT_OK_3,71,2026-02-03 13:17:09.324218,113.586901,0.760424,6.321998,slot#3,NaN,,,keyboard,probe_digit#3,"{""value"":""slot#3"",""entered"":null,""rt"":6.3219978999986779,""note"":""probe_digit#3""}",1,0.016669,59.992501,1
Sergio_G01_CNS-DDJXM3V64,S01,OFFmed_OFFstim,20260203_131442,2026-02-03 13:15:15.002795,1,1,probe,DIGIT3_OFF,148,2026-02-03 13:17:09.349031,114.347325,0.000000,,4,,,,keyboard,digit#3 off,"{""value"":4,""note"":""digit#3 off"",""pd_used"":0}",1,0.016669,59.992501,1
Sergio_G01_CNS-DDJXM3V64,S01,OFFmed_OFFstim,20260203_131442,2026-02-03 13:15:15.002795,1,1,probe,POSTDIG_FIX3_ON,153,2026-02-03 13:17:09.350777,114.347325,1.750008,,,,,,keyboard,after digit#3,"{""note"":""after digit#3""}",1,0.016669,59.992501,1
Sergio_G01_CNS-DDJXM3V64,S01,OFFmed_OFFstim,20260203_131442,2026-02-03 13:15:15.002795,1,1,probe,POSTDIG_FIX3_OFF,158,2026-02-03 13:17:11.099078,116.097332,0.034006,,,,,,keyboard,after digit#3,"{""note"":""after digit#3"",""pd_used"":0}",1,0.016669,59.992501,1
Sergio_G01_CNS-DDJXM3V64,S01,OFFmed_OFFstim,20260203_131442,2026-02-03 13:15:15.002795,1,1,probe,DIGIT_RECALL_LINE_4,164,2026-02-03 13:17:11.132866,116.131339,0.410379,,4,,,,keyboard,next recall question,"{""value"":4,""note"":""next recall question"",""pd_used"":1}",1,0.016669,59.992501,1
Sergio_G01_CNS-DDJXM3V64,S01,OFFmed_OFFstim,20260203_131442,2026-02-03 13:15:15.002795,1,1,probe,PROBE_DIGIT_OK_4,71,2026-02-03 13:17:12.439700,116.541718,0.922111,9.276815,slot#4,NaN,,,keyboard,probe_digit#4,"{""value"":""slot#4"",""entered"":null,""rt"":9.2768151999916881,""note"":""probe_digit#4""}",1,0.016669,59.992501,1
Sergio_G01_CNS-DDJXM3V64,S01,OFFmed_OFFstim,20260203_131442,2026-02-03 13:15:15.002795,1,1,probe,DIGIT4_OFF,149,2026-02-03 13:17:12.465754,117.463829,0.000000,,4,,,,keyboard,digit#4 off,"{""value"":4,""note"":""digit#4 off"",""pd_used"":0}",1,0.016669,59.992501,1
Sergio_G01_CNS-DDJXM3V64,S01,OFFmed_OFFstim,20260203_131442,2026-02-03 13:15:15.002795,1,1,probe,POSTDIG_FIX4_ON,154,2026-02-03 13:17:12.467145,117.463829,1.586264,,,,,,keyboard,after digit#4,"{""note"":""after digit#4""}",1,0.016669,59.992501,1
Sergio_G01_CNS-DDJXM3V64,S01,OFFmed_OFFstim,20260203_131442,2026-02-03 13:15:15.002795,1,1,probe,POSTDIG_FIX4_OFF,159,2026-02-03 13:17:14.051792,119.050094,0.031607,,,,,,keyboard,after digit#4,"{""note"":""after digit#4"",""pd_used"":0}",1,0.016669,59.992501,1
Sergio_G01_CNS-DDJXM3V64,S01,OFFmed_OFFstim,20260203_131442,2026-02-03 13:15:15.002795,1,1,probe,DIGIT_RECALL_LINE_5,165,2026-02-03 13:17:14.083420,119.081700,0.621293,,5,,,,keyboard,next recall question,"{""value"":5,""note"":""next recall question"",""pd_used"":1}",1,0.016669,59.992501,1
Sergio_G01_CNS-DDJXM3V64,S01,OFFmed_OFFstim,20260203_131442,2026-02-03 13:15:15.002795,1,1,probe,PROBE_DIGIT_OK_5,71,2026-02-03 13:17:15.337857,119.702993,0.643786,12.438090,slot#5,NaN,,,keyboard,probe_digit#5,"{""value"":""slot#5"",""entered"":null,""rt"":12.438090000010561,""note"":""probe_digit#5""}",1,0.016669,59.992501,1
Sergio_G01_CNS-DDJXM3V64,S01,OFFmed_OFFstim,20260203_131442,2026-02-03 13:15:15.002795,1,1,probe,DIGIT5_OFF,150,2026-02-03 13:17:15.348449,120.346779,0.000000,,4,,,,keyboard,digit#5 off,"{""value"":4,""note"":""digit#5 off"",""pd_used"":0}",1,0.016669,59.992501,1
Sergio_G01_CNS-DDJXM3V64,S01,OFFmed_OFFstim,20260203_131442,2026-02-03 13:15:15.002795,1,1,probe,POSTDIG_FIX5_ON,155,2026-02-03 13:17:15.349736,120.346779,3.268217,,,,,,keyboard,after digit#5,"{""note"":""after digit#5""}",1,0.016669,59.992501,1
Sergio_G01_CNS-DDJXM3V64,S01,OFFmed_OFFstim,20260203_131442,2026-02-03 13:15:15.002795,1,1,probe,POSTDIG_FIX5_OFF,160,2026-02-03 13:17:18.616799,123.614996,0.016673,,,,,,keyboard,after digit#5,"{""note"":""after digit#5"",""pd_used"":0}",1,0.016669,59.992501,1
Sergio_G01_CNS-DDJXM3V64,S01,OFFmed_OFFstim,20260203_131442,2026-02-03 13:15:15.002795,1,1,probe,PROBE_DONE,73,2026-02-03 13:17:18.633237,123.631669,0.001095,,,,,,keyboard,probe complete,"{""value"":"""",""note"":""probe complete""}",1,0.016669,59.992501,1
Sergio_G01_CNS-DDJXM3V64,S01,OFFmed_OFFstim,20260203_131442,2026-02-03 13:15:15.002795,1,1,probe,TRIAL_END,21,2026-02-03 13:17:18.634130,123.632765,0.000817,,,,,,keyboard,,{},1,0.016669,59.992501,1
Sergio_G01_CNS-DDJXM3V64,S01,OFFmed_OFFstim,20260203_131442,2026-02-03 13:15:15.002795,1,2,probe,TRIAL_CHANGE,22,2026-02-03 13:17:18.634902,123.633581,0.000621,,,,,,keyboard,trial transition,"{""note"":""trial transition""}",1,0.016669,59.992501,1
Sergio_G01_CNS-DDJXM3V64,S01,OFFmed_OFFstim,20260203_131442,2026-02-03 13:15:15.002795,1,2,probe,TRIAL_START,20,2026-02-03 13:17:18.635523,123.634202,0.030067,,,,,,keyboard,,{},1,0.016669,59.992501,1
Sergio_G01_CNS-DDJXM3V64,S01,OFFmed_OFFstim,20260203_131442,2026-02-03 13:15:15.002795,1,2,fix1,FIX1_ON,30,2026-02-03 13:17:18.665899,123.664269,3.166690,,,,,,keyboard,,"{""pd_used"":0}",1,0.016669,59.992501,1
Sergio_G01_CNS-DDJXM3V64,S01,OFFmed_OFFstim,20260203_131442,2026-02-03 13:15:15.002795,1,2,fix1,FIX1_OFF,31,2026-02-03 13:17:21.832760,126.830959,0.017724,,,,,,keyboard,,"{""pd_used"":0}",1,0.016669,59.992501,1
Sergio_G01_CNS-DDJXM3V64,S01,OFFmed_OFFstim,20260203_131442,2026-02-03 13:15:15.002795,1,2,digit,DIGIT1_ON,141,2026-02-03 13:17:21.850342,126.848683,0.516573,,5,,,,keyboard,digit#1 shown,"{""value"":5,""note"":""digit#1 shown"",""pd_used"":1}",1,0.016669,59.992501,1
Sergio_G01_CNS-DDJXM3V64,S01,OFFmed_OFFstim,20260203_131442,2026-02-03 13:15:15.002795,1,2,digit,DIGIT1_OFF,146,2026-02-03 13:17:22.367167,127.365256,0.000000,,5,,,,keyboard,digit#1 off,"{""value"":5,""note"":""digit#1 off"",""pd_used"":0}",1,0.016669,59.992501,1
Sergio_G01_CNS-DDJXM3V64,S01,OFFmed_OFFstim,20260203_131442,2026-02-03 13:15:15.002795,1,2,digit,POSTDIG_FIX1_ON,151,2026-02-03 13:17:22.368115,127.365256,1.986877,,,,,,keyboard,after digit#1,"{""note"":""after digit#1""}",1,0.016669,59.992501,1
Sergio_G01_CNS-DDJXM3V64,S01,OFFmed_OFFstim,20260203_131442,2026-02-03 13:15:15.002795,1,2,digit,POSTDIG_FIX1_OFF,156,2026-02-03 13:17:24.353939,129.352133,0.013525,,,,,,keyboard,after digit#1,"{""note"":""after digit#1"",""pd_used"":0}",1,0.016669,59.992501,1
Sergio_G01_CNS-DDJXM3V64,S01,OFFmed_OFFstim,20260203_131442,2026-02-03 13:15:15.002795,1,2,digit,DIGIT2_ON,142,2026-02-03 13:17:24.367244,129.365657,0.516496,,0,,,,keyboard,digit#2 shown,"{""value"":0,""note"":""digit#2 shown"",""pd_used"":1}",1,0.016669,59.992501,1
Sergio_G01_CNS-DDJXM3V64,S01,OFFmed_OFFstim,20260203_131442,2026-02-03 13:15:15.002795,1,2,digit,DIGIT2_OFF,147,2026-02-03 13:17:24.883923,129.882153,0.000000,,0,,,,keyboard,digit#2 off,"{""value"":0,""note"":""digit#2 off"",""pd_used"":0}",1,0.016669,59.992501,1
Sergio_G01_CNS-DDJXM3V64,S01,OFFmed_OFFstim,20260203_131442,2026-02-03 13:15:15.002795,1,2,digit,POSTDIG_FIX2_ON,152,2026-02-03 13:17:24.884864,129.882153,1.767045,,,,,,keyboard,after digit#2,"{""note"":""after digit#2""}",1,0.016669,59.992501,1
Sergio_G01_CNS-DDJXM3V64,S01,OFFmed_OFFstim,20260203_131442,2026-02-03 13:15:15.002795,1,2,digit,POSTDIG_FIX2_OFF,157,2026-02-03 13:17:26.651090,131.649198,0.016014,,,,,,keyboard,after digit#2,"{""note"":""after digit#2"",""pd_used"":0}",1,0.016669,59.992501,1
Sergio_G01_CNS-DDJXM3V64,S01,OFFmed_OFFstim,20260203_131442,2026-02-03 13:15:15.002795,1,2,digit,DIGIT3_ON,143,2026-02-03 13:17:26.666784,131.665213,0.515825,,3,,,,keyboard,digit#3 shown,"{""value"":3,""note"":""digit#3 shown"",""pd_used"":1}",1,0.016669,59.992501,1
Sergio_G01_CNS-DDJXM3V64,S01,OFFmed_OFFstim,20260203_131442,2026-02-03 13:15:15.002795,1,2,digit,DIGIT3_OFF,148,2026-02-03 13:17:27.182820,132.181038,0.000000,,3,,,,keyboard,digit#3 off,"{""value"":3,""note"":""digit#3 off"",""pd_used"":0}",1,0.016669,59.992501,1
Sergio_G01_CNS-DDJXM3V64,S01,OFFmed_OFFstim,20260203_131442,2026-02-03 13:15:15.002795,1,2,digit,POSTDIG_FIX3_ON,153,2026-02-03 13:17:27.183782,132.181038,1.750503,,,,,,keyboard,after digit#3,"{""note"":""after digit#3""}",1,0.016669,59.992501,1
Sergio_G01_CNS-DDJXM3V64,S01,OFFmed_OFFstim,20260203_131442,2026-02-03 13:15:15.002795,1,2,digit,POSTDIG_FIX3_OFF,158,2026-02-03 13:17:28.933304,133.931540,0.017655,,,,,,keyboard,after digit#3,"{""note"":""after digit#3"",""pd_used"":0}",1,0.016669,59.992501,1
Sergio_G01_CNS-DDJXM3V64,S01,OFFmed_OFFstim,20260203_131442,2026-02-03 13:15:15.002795,1,2,digit,DIGIT4_ON,144,2026-02-03 13:17:28.950725,133.949196,0.516154,,1,,,,keyboard,digit#4 shown,"{""value"":1,""note"":""digit#4 shown"",""pd_used"":1}",1,0.016669,59.992501,1
Sergio_G01_CNS-DDJXM3V64,S01,OFFmed_OFFstim,20260203_131442,2026-02-03 13:15:15.002795,1,2,digit,DIGIT4_OFF,149,2026-02-03 13:17:29.467119,134.465350,0.000000,,1,,,,keyboard,digit#4 off,"{""value"":1,""note"":""digit#4 off"",""pd_used"":0}",1,0.016669,59.992501,1
Sergio_G01_CNS-DDJXM3V64,S01,OFFmed_OFFstim,20260203_131442,2026-02-03 13:15:15.002795,1,2,digit,POSTDIG_FIX4_ON,154,2026-02-03 13:17:29.467958,134.465350,1.816470,,,,,,keyboard,after digit#4,"{""note"":""after digit#4""}",1,0.016669,59.992501,1
Sergio_G01_CNS-DDJXM3V64,S01,OFFmed_OFFstim,20260203_131442,2026-02-03 13:15:15.002795,1,2,digit,POSTDIG_FIX4_OFF,159,2026-02-03 13:17:31.283616,136.281820,0.018384,,,,,,keyboard,after digit#4,"{""note"":""after digit#4"",""pd_used"":0}",1,0.016669,59.992501,1
Sergio_G01_CNS-DDJXM3V64,S01,OFFmed_OFFstim,20260203_131442,2026-02-03 13:15:15.002795,1,2,digit,DIGIT5_ON,145,2026-02-03 13:17:31.301806,136.300204,0.515670,,6,,,,keyboard,digit#5 shown,"{""value"":6,""note"":""digit#5 shown"",""pd_used"":1}",1,0.016669,59.992501,1
Sergio_G01_CNS-DDJXM3V64,S01,OFFmed_OFFstim,20260203_131442,2026-02-03 13:15:15.002795,1,2,digit,DIGIT5_OFF,150,2026-02-03 13:17:31.818050,136.815875,0.000000,,6,,,,keyboard,digit#5 off,"{""value"":6,""note"":""digit#5 off"",""pd_used"":0}",1,0.016669,59.992501,1
Sergio_G01_CNS-DDJXM3V64,S01,OFFmed_OFFstim,20260203_131442,2026-02-03 13:15:15.002795,1,2,digit,POSTDIG_FIX5_ON,155,2026-02-03 13:17:31.818913,136.815875,3.082850,,,,,,keyboard,after digit#5,"{""note"":""after digit#5""}",1,0.016669,59.992501,1
Sergio_G01_CNS-DDJXM3V64,S01,OFFmed_OFFstim,20260203_131442,2026-02-03 13:15:15.002795,1,2,digit,POSTDIG_FIX5_OFF,160,2026-02-03 13:17:34.900512,139.898724,0.017753,,,,,,keyboard,after digit#5,"{""note"":""after digit#5"",""pd_used"":0}",1,0.016669,59.992501,1
Sergio_G01_CNS-DDJXM3V64,S01,OFFmed_OFFstim,20260203_131442,2026-02-03 13:15:15.002795,1,2,distractor,DISTRACTOR_ON,50,2026-02-03 13:17:34.918226,139.916477,7.844429,,2+7=9,,,,keyboard,,"{""value"":""2+7=9"",""isCorrectTruth"":true,""trueSum"":9,""pd_used"":1}",1,0.016669,59.992501,1
Sergio_G01_CNS-DDJXM3V64,S01,OFFmed_OFFstim,20260203_131442,2026-02-03 13:15:15.002795,1,2,distractor,DISTRACTOR_ANS,51,2026-02-03 13:17:43.292145,147.760906,0.000000,7.844429,2+7=9,F,0,,keyboard,key= (False),"{""value"":""2+7=9"",""entered"":""F"",""rt"":7.8444294000219088,""correct"":0,""note"":""key= (False)"",""truth"":true,""trueSum"":9,""shownSum"":9,""a"":2,""b"":7}",1,0.016669,59.992501,1
Sergio_G01_CNS-DDJXM3V64,S01,OFFmed_OFFstim,20260203_131442,2026-02-03 13:15:15.002795,1,2,distractor,ANS_WRONG,200,2026-02-03 13:17:43.293233,147.760906,0.555680,,,,,,keyboard,,{},1,0.016669,59.992501,1
Sergio_G01_CNS-DDJXM3V64,S01,OFFmed_OFFstim,20260203_131442,2026-02-03 13:15:15.002795,1,2,distractor,DISTRACTOR_OFF,52,2026-02-03 13:17:43.318388,148.316587,0.000000,,,,,,keyboard,,"{""pd_used"":0}",1,0.016669,59.992501,1
Sergio_G01_CNS-DDJXM3V64,S01,OFFmed_OFFstim,20260203_131442,2026-02-03 13:15:15.002795,1,2,distractor,FIX2_ON,60,2026-02-03 13:17:43.319446,148.316587,3.450523,,,,,,keyboard,immediate after response,"{""note"":""immediate after response""}",1,0.016669,59.992501,1
Sergio_G01_CNS-DDJXM3V64,S01,OFFmed_OFFstim,20260203_131442,2026-02-03 13:15:15.002795,1,2,fix2,FIX2_OFF,61,2026-02-03 13:17:46.768876,151.767110,0.016390,,,,,,keyboard,,"{""pd_used"":0}",1,0.016669,59.992501,1
Sergio_G01_CNS-DDJXM3V64,S01,OFFmed_OFFstim,20260203_131442,2026-02-03 13:15:15.002795,1,2,probe,DIGIT_RECALL_LINE_1,161,2026-02-03 13:17:46.785045,151.783500,NaN,,1,,,,keyboard,first recall question,"{""value"":1,""note"":""first recall question"",""pd_used"":1}",1,0.016669,59.992501,1
