file_version,subject,condition,session,task_start_time,block,trial,phase,event_name,event_code,wall_clock,t_rel_sec,duration_to_next,rt,value_shown,entered_value,correct,key_name,device,note,json,screen_index,ifi,refresh_hz,pd_used
Alavie_G01_LAPTOP-39J2GJ3V,S01,OFFmed_OFFstim,20251111_173300,2025-11-11 17:33:05.758000,NaN,NaN,,START_PAGE_ON,4,2025-11-11 17:33:25.862000,20.101311,0.016632,,,,,,keyboard,,"{""pd_used"":0}",0,0.016662,60.016898,1
Alavie_G01_LAPTOP-39J2GJ3V,S01,OFFmed_OFFstim,20251111_173300,2025-11-11 17:33:05.758000,NaN,NaN,,START_PAGE_ON,4,2025-11-11 17:33:25.862000,20.101311,3.349924,,,,,,keyboard,,"{""pd_used"":0}",0,0.016662,60.016898,1
Alavie_G01_LAPTOP-39J2GJ3V,S01,OFFmed_OFFstim,20251111_173300,2025-11-11 17:33:05.758000,NaN,NaN,,START_PAGE_ON,4,2025-11-11 17:33:25.862000,20.101311,3.658139,,,,,,keyboard,,"{""pd_used"":0}",0,0.016662,60.016898,1
Alavie_G01_LAPTOP-39J2GJ3V,S01,OFFmed_OFFstim,20251111_173300,2025-11-11 17:33:05.758000,NaN,NaN,,SESSION_START,1,2025-11-11 17:33:29.519000,23.759449,0.003951,,,,,,keyboard,,{},0,0.016662,60.016898,1
Alavie_G01_LAPTOP-39J2GJ3V,S01,OFFmed_OFFstim,20251111_173300,2025-11-11 17:33:05.758000,1,NaN,,BLOCK_START,10,2025-11-11 17:33:29.522000,23.763400,0.002953,,,,,,keyboard,,{},0,0.016662,60.016898,1
Alavie_G01_LAPTOP-39J2GJ3V,S01,OFFmed_OFFstim,20251111_173300,2025-11-11 17:33:05.758000,1,1,,TRIAL_CHANGE,22,2025-11-11 17:33:29.525000,23.766353,0.002481,,,,,,keyboard,trial transition,"{""note"":""trial transition""}",0,0.016662,60.016898,1
Alavie_G01_LAPTOP-39J2GJ3V,S01,OFFmed_OFFstim,20251111_173300,2025-11-11 17:33:05.758000,1,1,,TRIAL_START,20,2025-11-11 17:33:29.528000,23.768834,0.006641,,,,,,keyboard,,{},0,0.016662,60.016898,1
Alavie_G01_LAPTOP-39J2GJ3V,S01,OFFmed_OFFstim,20251111_173300,2025-11-11 17:33:05.758000,1,1,fix1,FIX1_ON,30,2025-11-11 17:33:29.535000,23.775475,3.036550,,,,,,keyboard,,"{""pd_used"":0}",0,0.016662,60.016898,1
Alavie_G01_LAPTOP-39J2GJ3V,S01,OFFmed_OFFstim,20251111_173300,2025-11-11 17:33:05.758000,1,1,fix1,FIX1_OFF,31,2025-11-11 17:33:32.573000,26.812025,0.018123,,,,,,keyboard,,"{""pd_used"":0}",0,0.016662,60.016898,1
Alavie_G01_LAPTOP-39J2GJ3V,S01,OFFmed_OFFstim,20251111_173300,2025-11-11 17:33:05.758000,1,1,digit,DIGIT1_ON,141,2025-11-11 17:33:32.589000,26.830149,0.507205,,6,,,,keyboard,digit#1 shown,"{""value"":6,""note"":""digit#1 shown"",""pd_used"":1}",0,0.016662,60.016898,1
Alavie_G01_LAPTOP-39J2GJ3V,S01,OFFmed_OFFstim,20251111_173300,2025-11-11 17:33:05.758000,1,1,digit,DIGIT1_OFF,146,2025-11-11 17:33:33.097000,27.337353,0.000000,,6,,,,keyboard,digit#1 off,"{""value"":6,""note"":""digit#1 off"",""pd_used"":0}",0,0.016662,60.016898,1
Alavie_G01_LAPTOP-39J2GJ3V,S01,OFFmed_OFFstim,20251111_173300,2025-11-11 17:33:05.758000,1,1,digit,POSTDIG_FIX1_ON,151,2025-11-11 17:33:33.101000,27.337353,1.764699,,,,,,keyboard,after digit#1,"{""note"":""after digit#1""}",0,0.016662,60.016898,1
Alavie_G01_LAPTOP-39J2GJ3V,S01,OFFmed_OFFstim,20251111_173300,2025-11-11 17:33:05.758000,1,1,digit,POSTDIG_FIX1_OFF,156,2025-11-11 17:33:34.862000,29.102052,0.011317,,,,,,keyboard,after digit#1,"{""note"":""after digit#1"",""pd_used"":0}",0,0.016662,60.016898,1
Alavie_G01_LAPTOP-39J2GJ3V,S01,OFFmed_OFFstim,20251111_173300,2025-11-11 17:33:05.758000,1,1,digit,DIGIT2_ON,142,2025-11-11 17:33:34.875000,29.113369,0.511071,,8,,,,keyboard,digit#2 shown,"{""value"":8,""note"":""digit#2 shown"",""pd_used"":1}",0,0.016662,60.016898,1
Alavie_G01_LAPTOP-39J2GJ3V,S01,OFFmed_OFFstim,20251111_173300,2025-11-11 17:33:05.758000,1,1,digit,DIGIT2_OFF,147,2025-11-11 17:33:35.387000,29.624440,0.000000,,8,,,,keyboard,digit#2 off,"{""value"":8,""note"":""digit#2 off"",""pd_used"":0}",0,0.016662,60.016898,1
Alavie_G01_LAPTOP-39J2GJ3V,S01,OFFmed_OFFstim,20251111_173300,2025-11-11 17:33:05.758000,1,1,digit,POSTDIG_FIX2_ON,152,2025-11-11 17:33:35.394000,29.624440,1.939240,,,,,,keyboard,after digit#2,"{""note"":""after digit#2""}",0,0.016662,60.016898,1
Alavie_G01_LAPTOP-39J2GJ3V,S01,OFFmed_OFFstim,20251111_173300,2025-11-11 17:33:05.758000,1,1,digit,POSTDIG_FIX2_OFF,157,2025-11-11 17:33:37.323000,31.563680,0.009273,,,,,,keyboard,after digit#2,"{""note"":""after digit#2"",""pd_used"":0}",0,0.016662,60.016898,1
Alavie_G01_LAPTOP-39J2GJ3V,S01,OFFmed_OFFstim,20251111_173300,2025-11-11 17:33:05.758000,1,1,digit,DIGIT3_ON,143,2025-11-11 17:33:37.333000,31.572953,0.509808,,1,,,,keyboard,digit#3 shown,"{""value"":1,""note"":""digit#3 shown"",""pd_used"":1}",0,0.016662,60.016898,1
Alavie_G01_LAPTOP-39J2GJ3V,S01,OFFmed_OFFstim,20251111_173300,2025-11-11 17:33:05.758000,1,1,digit,DIGIT3_OFF,148,2025-11-11 17:33:37.846000,32.082760,0.000000,,1,,,,keyboard,digit#3 off,"{""value"":1,""note"":""digit#3 off"",""pd_used"":0}",0,0.016662,60.016898,1
Alavie_G01_LAPTOP-39J2GJ3V,S01,OFFmed_OFFstim,20251111_173300,2025-11-11 17:33:05.758000,1,1,digit,POSTDIG_FIX3_ON,153,2025-11-11 17:33:37.856000,32.082760,1.954410,,,,,,keyboard,after digit#3,"{""note"":""after digit#3""}",0,0.016662,60.016898,1
Alavie_G01_LAPTOP-39J2GJ3V,S01,OFFmed_OFFstim,20251111_173300,2025-11-11 17:33:05.758000,1,1,digit,POSTDIG_FIX3_OFF,158,2025-11-11 17:33:39.798000,34.037171,0.011875,,,,,,keyboard,after digit#3,"{""note"":""after digit#3"",""pd_used"":0}",0,0.016662,60.016898,1
Alavie_G01_LAPTOP-39J2GJ3V,S01,OFFmed_OFFstim,20251111_173300,2025-11-11 17:33:05.758000,1,1,digit,DIGIT4_ON,144,2025-11-11 17:33:39.810000,34.049045,0.510180,,4,,,,keyboard,digit#4 shown,"{""value"":4,""note"":""digit#4 shown"",""pd_used"":1}",0,0.016662,60.016898,1
Alavie_G01_LAPTOP-39J2GJ3V,S01,OFFmed_OFFstim,20251111_173300,2025-11-11 17:33:05.758000,1,1,digit,DIGIT4_OFF,149,2025-11-11 17:33:40.318000,34.559225,0.000000,,4,,,,keyboard,digit#4 off,"{""value"":4,""note"":""digit#4 off"",""pd_used"":0}",0,0.016662,60.016898,1
Alavie_G01_LAPTOP-39J2GJ3V,S01,OFFmed_OFFstim,20251111_173300,2025-11-11 17:33:05.758000,1,1,digit,POSTDIG_FIX4_ON,154,2025-11-11 17:33:40.320000,34.559225,1.851066,,,,,,keyboard,after digit#4,"{""note"":""after digit#4""}",0,0.016662,60.016898,1
Alavie_G01_LAPTOP-39J2GJ3V,S01,OFFmed_OFFstim,20251111_173300,2025-11-11 17:33:05.758000,1,1,digit,POSTDIG_FIX4_OFF,159,2025-11-11 17:33:42.171000,36.410292,0.012479,,,,,,keyboard,after digit#4,"{""note"":""after digit#4"",""pd_used"":0}",0,0.016662,60.016898,1
Alavie_G01_LAPTOP-39J2GJ3V,S01,OFFmed_OFFstim,20251111_173300,2025-11-11 17:33:05.758000,1,1,digit,DIGIT5_ON,145,2025-11-11 17:33:42.184000,36.422770,0.510237,,8,,,,keyboard,digit#5 shown,"{""value"":8,""note"":""digit#5 shown"",""pd_used"":1}",0,0.016662,60.016898,1
Alavie_G01_LAPTOP-39J2GJ3V,S01,OFFmed_OFFstim,20251111_173300,2025-11-11 17:33:05.758000,1,1,digit,DIGIT5_OFF,150,2025-11-11 17:33:42.694000,36.933007,0.000000,,8,,,,keyboard,digit#5 off,"{""value"":8,""note"":""digit#5 off"",""pd_used"":0}",0,0.016662,60.016898,1
Alavie_G01_LAPTOP-39J2GJ3V,S01,OFFmed_OFFstim,20251111_173300,2025-11-11 17:33:05.758000,1,1,digit,POSTDIG_FIX5_ON,155,2025-11-11 17:33:42.702000,36.933007,3.424404,,,,,,keyboard,after digit#5,"{""note"":""after digit#5""}",0,0.016662,60.016898,1
Alavie_G01_LAPTOP-39J2GJ3V,S01,OFFmed_OFFstim,20251111_173300,2025-11-11 17:33:05.758000,1,1,digit,POSTDIG_FIX5_OFF,160,2025-11-11 17:33:46.121000,40.357411,0.030824,,,,,,keyboard,after digit#5,"{""note"":""after digit#5"",""pd_used"":0}",0,0.016662,60.016898,1
Alavie_G01_LAPTOP-39J2GJ3V,S01,OFFmed_OFFstim,20251111_173300,2025-11-11 17:33:05.758000,1,1,distractor,DISTRACTOR_ON,50,2025-11-11 17:33:46.148000,40.388235,1.423071,,4+6=9,,,,keyboard,,"{""value"":""4+6=9"",""isCorrectTruth"":false,""trueSum"":10,""pd_used"":1}",0,0.016662,60.016898,1
Alavie_G01_LAPTOP-39J2GJ3V,S01,OFFmed_OFFstim,20251111_173300,2025-11-11 17:33:05.758000,1,1,distractor,DISTRACTOR_ANS,51,2025-11-11 17:33:48.065000,41.811306,0.000000,1.423071,4+6=9,F,1,,keyboard,key= (False),"{""value"":""4+6=9"",""entered"":""F"",""rt"":1.4230713999713771,""correct"":1,""note"":""key= (False)"",""truth"":false,""trueSum"":10,""shownSum"":9,""a"":4,""b"":6}",0,0.016662,60.016898,1
Alavie_G01_LAPTOP-39J2GJ3V,S01,OFFmed_OFFstim,20251111_173300,2025-11-11 17:33:05.758000,1,1,distractor,ANS_CORRECT,100,2025-11-11 17:33:48.067000,41.811306,0.503637,,,,,,keyboard,,{},0,0.016662,60.016898,1
Alavie_G01_LAPTOP-39J2GJ3V,S01,OFFmed_OFFstim,20251111_173300,2025-11-11 17:33:05.758000,1,1,distractor,DISTRACTOR_OFF,52,2025-11-11 17:33:48.074000,42.314943,0.000000,,,,,,keyboard,,"{""pd_used"":0}",0,0.016662,60.016898,1
Alavie_G01_LAPTOP-39J2GJ3V,S01,OFFmed_OFFstim,20251111_173300,2025-11-11 17:33:05.758000,1,1,distractor,FIX2_ON,60,2025-11-11 17:33:48.076000,42.314943,3.302432,,,,,,keyboard,immediate after response,"{""note"":""immediate after response""}",0,0.016662,60.016898,1
Alavie_G01_LAPTOP-39J2GJ3V,S01,OFFmed_OFFstim,20251111_173300,2025-11-11 17:33:05.758000,1,1,fix2,FIX2_OFF,61,2025-11-11 17:33:51.377000,45.617375,0.008298,,,,,,keyboard,,"{""pd_used"":0}",0,0.016662,60.016898,1
Alavie_G01_LAPTOP-39J2GJ3V,S01,OFFmed_OFFstim,20251111_173300,2025-11-11 17:33:05.758000,1,1,probe,RECALL_BLACK_ON,74,2025-11-11 17:33:51.385000,45.625672,0.016342,,,,,,keyboard,probe black page,"{""note"":""probe black page"",""pd_used"":0}",0,0.016662,60.016898,1
Alavie_G01_LAPTOP-39J2GJ3V,S01,OFFmed_OFFstim,20251111_173300,2025-11-11 17:33:05.758000,1,1,probe,DIGIT_RECALL_LINE_1,161,2025-11-11 17:33:51.402000,45.642014,6.099395,,1,,,,keyboard,first recall question,"{""value"":1,""note"":""first recall question"",""pd_used"":1}",0,0.016662,60.016898,1
Alavie_G01_LAPTOP-39J2GJ3V,S01,OFFmed_OFFstim,20251111_173300,2025-11-11 17:33:05.758000,1,1,probe,PROBE_DIGIT_OK_1,71,2025-11-11 17:33:58.016000,51.741410,1.920179,6.121258,slot#1,NaN,,,keyboard,probe_digit#1,"{""value"":""slot#1"",""entered"":null,""rt"":6.1212578000267968,""note"":""probe_digit#1""}",0,0.016662,60.016898,1
Alavie_G01_LAPTOP-39J2GJ3V,S01,OFFmed_OFFstim,20251111_173300,2025-11-11 17:33:05.758000,1,1,probe,DIGIT_RECALL_LINE_2,162,2025-11-11 17:33:59.421000,53.661588,0.753135,,2,,,,keyboard,next recall question,"{""value"":2,""note"":""next recall question"",""pd_used"":1}",0,0.016662,60.016898,1
Alavie_G01_LAPTOP-39J2GJ3V,S01,OFFmed_OFFstim,20251111_173300,2025-11-11 17:33:05.758000,1,1,probe,PROBE_DIGIT_OK_2,71,2025-11-11 17:34:00.606000,54.414724,1.893075,8.794572,slot#2,NaN,,,keyboard,probe_digit#2,"{""value"":""slot#2"",""entered"":null,""rt"":8.7945720000425354,""note"":""probe_digit#2""}",0,0.016662,60.016898,1
Alavie_G01_LAPTOP-39J2GJ3V,S01,OFFmed_OFFstim,20251111_173300,2025-11-11 17:33:05.758000,1,1,probe,DIGIT_RECALL_LINE_3,163,2025-11-11 17:34:02.067000,56.307799,0.732137,,3,,,,keyboard,next recall question,"{""value"":3,""note"":""next recall question"",""pd_used"":1}",0,0.016662,60.016898,1
Alavie_G01_LAPTOP-39J2GJ3V,S01,OFFmed_OFFstim,20251111_173300,2025-11-11 17:33:05.758000,1,1,probe,PROBE_DIGIT_OK_3,71,2025-11-11 17:34:03.254000,57.039936,1.889227,11.419785,slot#3,NaN,,,keyboard,probe_digit#3,"{""value"":""slot#3"",""entered"":null,""rt"":11.419784600031562,""note"":""probe_digit#3""}",0,0.016662,60.016898,1
Alavie_G01_LAPTOP-39J2GJ3V,S01,OFFmed_OFFstim,20251111_173300,2025-11-11 17:33:05.758000,1,1,probe,DIGIT_RECALL_LINE_4,164,2025-11-11 17:34:04.692000,58.929163,0.626418,,4,,,,keyboard,next recall question,"{""value"":4,""note"":""next recall question"",""pd_used"":1}",0,0.016662,60.016898,1
Alavie_G01_LAPTOP-39J2GJ3V,S01,OFFmed_OFFstim,20251111_173300,2025-11-11 17:33:05.758000,1,1,probe,PROBE_DIGIT_OK_4,71,2025-11-11 17:34:05.748000,59.555581,1.923651,13.935429,slot#4,NaN,,,keyboard,probe_digit#4,"{""value"":""slot#4"",""entered"":null,""rt"":13.935429100005422,""note"":""probe_digit#4""}",0,0.016662,60.016898,1
Alavie_G01_LAPTOP-39J2GJ3V,S01,OFFmed_OFFstim,20251111_173300,2025-11-11 17:33:05.758000,1,1,probe,DIGIT_RECALL_LINE_5,165,2025-11-11 17:34:07.238000,61.479232,0.518147,,5,,,,keyboard,next recall question,"{""value"":5,""note"":""next recall question"",""pd_used"":1}",0,0.016662,60.016898,1
Alavie_G01_LAPTOP-39J2GJ3V,S01,OFFmed_OFFstim,20251111_173300,2025-11-11 17:33:05.758000,1,1,probe,PROBE_DIGIT_OK_5,71,2025-11-11 17:34:08.186000,61.997379,1.593831,16.377227,slot#5,NaN,,,keyboard,probe_digit#5,"{""value"":""slot#5"",""entered"":null,""rt"":16.377227100019809,""note"":""probe_digit#5""}",0,0.016662,60.016898,1
Alavie_G01_LAPTOP-39J2GJ3V,S01,OFFmed_OFFstim,20251111_173300,2025-11-11 17:33:05.758000,1,1,probe,PROBE_DONE,73,2025-11-11 17:34:09.354000,63.591210,0.009170,,,,,,keyboard,probe complete,"{""value"":"""",""note"":""probe complete""}",0,0.016662,60.016898,1
Alavie_G01_LAPTOP-39J2GJ3V,S01,OFFmed_OFFstim,20251111_173300,2025-11-11 17:33:05.758000,1,1,probe,TRIAL_END,21,2025-11-11 17:34:09.362000,63.600379,0.009117,,,,,,keyboard,,{},0,0.016662,60.016898,1
Alavie_G01_LAPTOP-39J2GJ3V,S01,OFFmed_OFFstim,20251111_173300,2025-11-11 17:33:05.758000,1,1,probe,BLOCK_END,11,2025-11-11 17:34:09.370000,63.609496,0.428868,,,,,,keyboard,,{},0,0.016662,60.016898,1
Alavie_G01_LAPTOP-39J2GJ3V,S01,OFFmed_OFFstim,20251111_173300,2025-11-11 17:33:05.758000,1,1,probe,SESSION_END,3,2025-11-11 17:34:09.798000,64.038364,NaN,,,,,,keyboard,,{},0,0.016662,60.016898,1
