file_version,subject,condition,session,task_start_time,block,trial,phase,event_name,event_code,wall_clock,t_rel_sec,duration_to_next,rt,value_shown,entered_value,correct,key_name,device,note,json,screen_index,ifi,refresh_hz,pd_used
Sergio_G01_CNS-LLF5HT7Y0,S01,OFFmed_OFFstim,20260131_201625,2026-01-31 20:16:34.865951,1,NaN,,BLOCK_START,10,2026-01-31 20:16:55.464201,20.594231,0.022715,,,,,,keyboard,,{},2,0.016667,60.000000,1
Sergio_G01_CNS-LLF5HT7Y0,S01,OFFmed_OFFstim,20260131_201625,2026-01-31 20:16:34.865951,1,0,reading,START_PAGE_ON,4,2026-01-31 20:16:55.482959,20.616945,0.045243,,,,,,keyboard,,"{""pd_used"":0}",2,0.016667,60.000000,1
Sergio_G01_CNS-LLF5HT7Y0,S01,OFFmed_OFFstim,20260131_201625,2026-01-31 20:16:34.865951,1,0,reading,START_PAGE_ON,4,2026-01-31 20:16:55.482959,20.616945,2.122206,,,,,,keyboard,,"{""pd_used"":0}",2,0.016667,60.000000,1
Sergio_G01_CNS-LLF5HT7Y0,S01,OFFmed_OFFstim,20260131_201625,2026-01-31 20:16:34.865951,1,0,reading,START_PAGE_ON,4,2026-01-31 20:16:55.482959,20.616945,2.427327,,,,,,keyboard,,"{""pd_used"":0}",2,0.016667,60.000000,1
Sergio_G01_CNS-LLF5HT7Y0,S01,OFFmed_OFFstim,20260131_201625,2026-01-31 20:16:34.865951,1,0,reading,CONTROL_START,23,2026-01-31 20:16:57.910173,23.044272,0.027165,,,,,,keyboard,,{},2,0.016667,60.000000,1
Sergio_G01_CNS-LLF5HT7Y0,S01,OFFmed_OFFstim,20260131_201625,2026-01-31 20:16:34.865951,1,0,reading,DIGIT_READ1_ON,201,2026-01-31 20:16:57.935846,23.071437,6.855471,,3,,,,keyboard,digit#1 shown,"{""value"":3,""note"":""digit#1 shown"",""pd_used"":1}",2,0.016667,60.000000,1
Sergio_G01_CNS-LLF5HT7Y0,S01,OFFmed_OFFstim,20260131_201625,2026-01-31 20:16:34.865951,1,0,reading,PROBE_COUNT_OK_1,71,2026-01-31 20:17:07.152637,29.926908,2.392034,9.324312,slot#1,NaN,,,keyboard,probe_digit#1,"{""value"":""slot#1"",""entered"":null,""rt"":9.3243120000006456,""note"":""probe_digit#1""}",2,0.016667,60.000000,1
Sergio_G01_CNS-LLF5HT7Y0,S01,OFFmed_OFFstim,20260131_201625,2026-01-31 20:16:34.865951,1,0,reading,DIGIT_READ1_OFF,211,2026-01-31 20:17:07.184046,32.318943,0.000000,,3,,,,keyboard,digit#1 off,"{""value"":3,""note"":""digit#1 off"",""pd_used"":0}",2,0.016667,60.000000,1
Sergio_G01_CNS-LLF5HT7Y0,S01,OFFmed_OFFstim,20260131_201625,2026-01-31 20:16:34.865951,1,0,reading,POSTREAD_FIX1_ON,231,2026-01-31 20:17:07.189484,32.318943,1.859709,,,,,,keyboard,after digit#1,"{""note"":""after digit#1""}",2,0.016667,60.000000,1
Sergio_G01_CNS-LLF5HT7Y0,S01,OFFmed_OFFstim,20260131_201625,2026-01-31 20:16:34.865951,1,0,reading,POSTREAD_FIX1_OFF,241,2026-01-31 20:17:09.044797,34.178652,0.014029,,,,,,keyboard,after digit#1,"{""note"":""after digit#1"",""pd_used"":0}",2,0.016667,60.000000,1
Sergio_G01_CNS-LLF5HT7Y0,S01,OFFmed_OFFstim,20260131_201625,2026-01-31 20:16:34.865951,1,0,reading,DIGIT_READ2_ON,202,2026-01-31 20:17:09.057024,34.192682,0.936560,,5,,,,keyboard,digit#2 shown,"{""value"":5,""note"":""digit#2 shown"",""pd_used"":1}",2,0.016667,60.000000,1
Sergio_G01_CNS-LLF5HT7Y0,S01,OFFmed_OFFstim,20260131_201625,2026-01-31 20:16:34.865951,1,0,reading,PROBE_COUNT_OK_2,71,2026-01-31 20:17:10.447481,35.129241,0.457767,14.526645,slot#2,NaN,,,keyboard,probe_digit#2,"{""value"":""slot#2"",""entered"":null,""rt"":14.526645099998859,""note"":""probe_digit#2""}",2,0.016667,60.000000,1
Sergio_G01_CNS-LLF5HT7Y0,S01,OFFmed_OFFstim,20260131_201625,2026-01-31 20:16:34.865951,1,0,reading,DIGIT_READ2_OFF,212,2026-01-31 20:17:10.451060,35.587008,0.000000,,5,,,,keyboard,digit#2 off,"{""value"":5,""note"":""digit#2 off"",""pd_used"":0}",2,0.016667,60.000000,1
Sergio_G01_CNS-LLF5HT7Y0,S01,OFFmed_OFFstim,20260131_201625,2026-01-31 20:16:34.865951,1,0,reading,POSTREAD_FIX2_ON,232,2026-01-31 20:17:10.452203,35.587008,1.705038,,,,,,keyboard,after digit#2,"{""note"":""after digit#2""}",2,0.016667,60.000000,1
Sergio_G01_CNS-LLF5HT7Y0,S01,OFFmed_OFFstim,20260131_201625,2026-01-31 20:16:34.865951,1,0,reading,POSTREAD_FIX2_OFF,242,2026-01-31 20:17:12.157341,37.292046,0.012526,,,,,,keyboard,after digit#2,"{""note"":""after digit#2"",""pd_used"":0}",2,0.016667,60.000000,1
Sergio_G01_CNS-LLF5HT7Y0,S01,OFFmed_OFFstim,20260131_201625,2026-01-31 20:16:34.865951,1,0,reading,DIGIT_READ3_ON,203,2026-01-31 20:17:12.169341,37.304572,2.232279,,8,,,,keyboard,digit#3 shown,"{""value"":8,""note"":""digit#3 shown"",""pd_used"":1}",2,0.016667,60.000000,1
Sergio_G01_CNS-LLF5HT7Y0,S01,OFFmed_OFFstim,20260131_201625,2026-01-31 20:16:34.865951,1,0,reading,PROBE_COUNT_OK_3,71,2026-01-31 20:17:14.847204,39.536851,0.449413,18.934255,slot#3,NaN,,,keyboard,probe_digit#3,"{""value"":""slot#3"",""entered"":null,""rt"":18.934255099997245,""note"":""probe_digit#3""}",2,0.016667,60.000000,1
Sergio_G01_CNS-LLF5HT7Y0,S01,OFFmed_OFFstim,20260131_201625,2026-01-31 20:16:34.865951,1,0,reading,DIGIT_READ3_OFF,213,2026-01-31 20:17:14.850454,39.986265,0.000000,,8,,,,keyboard,digit#3 off,"{""value"":8,""note"":""digit#3 off"",""pd_used"":0}",2,0.016667,60.000000,1
Sergio_G01_CNS-LLF5HT7Y0,S01,OFFmed_OFFstim,20260131_201625,2026-01-31 20:16:34.865951,1,0,reading,POSTREAD_FIX3_ON,233,2026-01-31 20:17:14.851476,39.986265,1.965699,,,,,,keyboard,after digit#3,"{""note"":""after digit#3""}",2,0.016667,60.000000,1
Sergio_G01_CNS-LLF5HT7Y0,S01,OFFmed_OFFstim,20260131_201625,2026-01-31 20:16:34.865951,1,0,reading,POSTREAD_FIX3_OFF,243,2026-01-31 20:17:16.816773,41.951963,0.012417,,,,,,keyboard,after digit#3,"{""note"":""after digit#3"",""pd_used"":0}",2,0.016667,60.000000,1
Sergio_G01_CNS-LLF5HT7Y0,S01,OFFmed_OFFstim,20260131_201625,2026-01-31 20:16:34.865951,1,0,reading,DIGIT_READ4_ON,204,2026-01-31 20:17:16.829665,41.964381,0.767166,,6,,,,keyboard,digit#4 shown,"{""value"":6,""note"":""digit#4 shown"",""pd_used"":1}",2,0.016667,60.000000,1
Sergio_G01_CNS-LLF5HT7Y0,S01,OFFmed_OFFstim,20260131_201625,2026-01-31 20:16:34.865951,1,0,reading,PROBE_COUNT_OK_4,71,2026-01-31 20:17:17.986928,42.731547,0.395455,22.128950,slot#4,NaN,,,keyboard,probe_digit#4,"{""value"":""slot#4"",""entered"":null,""rt"":22.128950199999963,""note"":""probe_digit#4""}",2,0.016667,60.000000,1
Sergio_G01_CNS-LLF5HT7Y0,S01,OFFmed_OFFstim,20260131_201625,2026-01-31 20:16:34.865951,1,0,reading,DIGIT_READ4_OFF,214,2026-01-31 20:17:17.991535,43.127002,0.000000,,6,,,,keyboard,digit#4 off,"{""value"":6,""note"":""digit#4 off"",""pd_used"":0}",2,0.016667,60.000000,1
Sergio_G01_CNS-LLF5HT7Y0,S01,OFFmed_OFFstim,20260131_201625,2026-01-31 20:16:34.865951,1,0,reading,POSTREAD_FIX4_ON,234,2026-01-31 20:17:17.993143,43.127002,1.609307,,,,,,keyboard,after digit#4,"{""note"":""after digit#4""}",2,0.016667,60.000000,1
Sergio_G01_CNS-LLF5HT7Y0,S01,OFFmed_OFFstim,20260131_201625,2026-01-31 20:16:34.865951,1,0,reading,POSTREAD_FIX4_OFF,244,2026-01-31 20:17:19.601482,44.736309,0.011629,,,,,,keyboard,after digit#4,"{""note"":""after digit#4"",""pd_used"":0}",2,0.016667,60.000000,1
Sergio_G01_CNS-LLF5HT7Y0,S01,OFFmed_OFFstim,20260131_201625,2026-01-31 20:16:34.865951,1,0,reading,DIGIT_READ5_ON,205,2026-01-31 20:17:19.612446,44.747938,3.873191,,2,,,,keyboard,digit#5 shown,"{""value"":2,""note"":""digit#5 shown"",""pd_used"":1}",2,0.016667,60.000000,1
Sergio_G01_CNS-LLF5HT7Y0,S01,OFFmed_OFFstim,20260131_201625,2026-01-31 20:16:34.865951,1,0,reading,PROBE_COUNT_OK_5,71,2026-01-31 20:17:24.011584,48.621129,0.534557,28.018533,slot#5,NaN,,,keyboard,probe_digit#5,"{""value"":""slot#5"",""entered"":null,""rt"":28.018532899997808,""note"":""probe_digit#5""}",2,0.016667,60.000000,1
Sergio_G01_CNS-LLF5HT7Y0,S01,OFFmed_OFFstim,20260131_201625,2026-01-31 20:16:34.865951,1,0,reading,DIGIT_READ5_OFF,215,2026-01-31 20:17:24.020185,49.155686,0.000000,,2,,,,keyboard,digit#5 off,"{""value"":2,""note"":""digit#5 off"",""pd_used"":0}",2,0.016667,60.000000,1
Sergio_G01_CNS-LLF5HT7Y0,S01,OFFmed_OFFstim,20260131_201625,2026-01-31 20:16:34.865951,1,0,reading,POSTREAD_FIX5_ON,235,2026-01-31 20:17:24.022474,49.155686,1.722603,,,,,,keyboard,after digit#5,"{""note"":""after digit#5""}",2,0.016667,60.000000,1
Sergio_G01_CNS-LLF5HT7Y0,S01,OFFmed_OFFstim,20260131_201625,2026-01-31 20:16:34.865951,1,0,reading,POSTREAD_FIX5_OFF,245,2026-01-31 20:17:25.743026,50.878289,0.012243,,,,,,keyboard,after digit#5,"{""note"":""after digit#5"",""pd_used"":0}",2,0.016667,60.000000,1
Sergio_G01_CNS-LLF5HT7Y0,S01,OFFmed_OFFstim,20260131_201625,2026-01-31 20:16:34.865951,1,0,reading,DIGIT_READ6_ON,206,2026-01-31 20:17:25.754998,50.890531,0.805274,,8,,,,keyboard,digit#6 shown,"{""value"":8,""note"":""digit#6 shown"",""pd_used"":1}",2,0.016667,60.000000,1
Sergio_G01_CNS-LLF5HT7Y0,S01,OFFmed_OFFstim,20260131_201625,2026-01-31 20:16:34.865951,1,0,reading,PROBE_COUNT_OK_6,71,2026-01-31 20:17:26.953927,51.695805,0.397181,31.093209,slot#6,NaN,,,keyboard,probe_digit#6,"{""value"":""slot#6"",""entered"":null,""rt"":31.093208999998751,""note"":""probe_digit#6""}",2,0.016667,60.000000,1
Sergio_G01_CNS-LLF5HT7Y0,S01,OFFmed_OFFstim,20260131_201625,2026-01-31 20:16:34.865951,1,0,reading,DIGIT_READ6_OFF,216,2026-01-31 20:17:26.957631,52.092986,0.000000,,8,,,,keyboard,digit#6 off,"{""value"":8,""note"":""digit#6 off"",""pd_used"":0}",2,0.016667,60.000000,1
Sergio_G01_CNS-LLF5HT7Y0,S01,OFFmed_OFFstim,20260131_201625,2026-01-31 20:16:34.865951,1,0,reading,POSTREAD_FIX6_ON,236,2026-01-31 20:17:26.959288,52.092986,1.719838,,,,,,keyboard,after digit#6,"{""note"":""after digit#6""}",2,0.016667,60.000000,1
Sergio_G01_CNS-LLF5HT7Y0,S01,OFFmed_OFFstim,20260131_201625,2026-01-31 20:16:34.865951,1,0,reading,POSTREAD_FIX6_OFF,246,2026-01-31 20:17:28.677603,53.812824,0.012364,,,,,,keyboard,after digit#6,"{""note"":""after digit#6"",""pd_used"":0}",2,0.016667,60.000000,1
Sergio_G01_CNS-LLF5HT7Y0,S01,OFFmed_OFFstim,20260131_201625,2026-01-31 20:16:34.865951,1,0,reading,DIGIT_READ7_ON,207,2026-01-31 20:17:28.689836,53.825188,0.777996,,2,,,,keyboard,digit#7 shown,"{""value"":2,""note"":""digit#7 shown"",""pd_used"":1}",2,0.016667,60.000000,1
Sergio_G01_CNS-LLF5HT7Y0,S01,OFFmed_OFFstim,20260131_201625,2026-01-31 20:16:34.865951,1,0,reading,PROBE_COUNT_OK_7,71,2026-01-31 20:17:29.811866,54.603184,0.347067,34.000587,slot#7,NaN,,,keyboard,probe_digit#7,"{""value"":""slot#7"",""entered"":null,""rt"":34.000587200000155,""note"":""probe_digit#7""}",2,0.016667,60.000000,1
Sergio_G01_CNS-LLF5HT7Y0,S01,OFFmed_OFFstim,20260131_201625,2026-01-31 20:16:34.865951,1,0,reading,DIGIT_READ7_OFF,217,2026-01-31 20:17:29.815017,54.950251,0.000000,,2,,,,keyboard,digit#7 off,"{""value"":2,""note"":""digit#7 off"",""pd_used"":0}",2,0.016667,60.000000,1
Sergio_G01_CNS-LLF5HT7Y0,S01,OFFmed_OFFstim,20260131_201625,2026-01-31 20:16:34.865951,1,0,reading,POSTREAD_FIX7_ON,237,2026-01-31 20:17:29.816828,54.950251,1.624946,,,,,,keyboard,after digit#7,"{""note"":""after digit#7""}",2,0.016667,60.000000,1
Sergio_G01_CNS-LLF5HT7Y0,S01,OFFmed_OFFstim,20260131_201625,2026-01-31 20:16:34.865951,1,0,reading,POSTREAD_FIX7_OFF,247,2026-01-31 20:17:31.440226,56.575197,0.010297,,,,,,keyboard,after digit#7,"{""note"":""after digit#7"",""pd_used"":0}",2,0.016667,60.000000,1
Sergio_G01_CNS-LLF5HT7Y0,S01,OFFmed_OFFstim,20260131_201625,2026-01-31 20:16:34.865951,1,0,reading,DIGIT_READ8_ON,208,2026-01-31 20:17:31.450121,56.585493,0.723816,,4,,,,keyboard,digit#8 shown,"{""value"":4,""note"":""digit#8 shown"",""pd_used"":1}",2,0.016667,60.000000,1
Sergio_G01_CNS-LLF5HT7Y0,S01,OFFmed_OFFstim,20260131_201625,2026-01-31 20:16:34.865951,1,0,reading,PROBE_COUNT_OK_8,71,2026-01-31 20:17:32.832810,57.309310,0.662782,36.706713,slot#8,NaN,,,keyboard,probe_digit#8,"{""value"":""slot#8"",""entered"":null,""rt"":36.706713399998989,""note"":""probe_digit#8""}",2,0.016667,60.000000,1
Sergio_G01_CNS-LLF5HT7Y0,S01,OFFmed_OFFstim,20260131_201625,2026-01-31 20:16:34.865951,1,0,reading,DIGIT_READ8_OFF,218,2026-01-31 20:17:32.836560,57.972091,0.000000,,4,,,,keyboard,digit#8 off,"{""value"":4,""note"":""digit#8 off"",""pd_used"":0}",2,0.016667,60.000000,1
Sergio_G01_CNS-LLF5HT7Y0,S01,OFFmed_OFFstim,20260131_201625,2026-01-31 20:16:34.865951,1,0,reading,POSTREAD_FIX8_ON,238,2026-01-31 20:17:32.837812,57.972091,1.591943,,,,,,keyboard,after digit#8,"{""note"":""after digit#8""}",2,0.016667,60.000000,1
Sergio_G01_CNS-LLF5HT7Y0,S01,OFFmed_OFFstim,20260131_201625,2026-01-31 20:16:34.865951,1,0,reading,POSTREAD_FIX8_OFF,248,2026-01-31 20:17:34.429484,59.564034,0.012163,,,,,,keyboard,after digit#8,"{""note"":""after digit#8"",""pd_used"":0}",2,0.016667,60.000000,1
Sergio_G01_CNS-LLF5HT7Y0,S01,OFFmed_OFFstim,20260131_201625,2026-01-31 20:16:34.865951,1,0,reading,DIGIT_READ9_ON,209,2026-01-31 20:17:34.441302,59.576197,0.682721,,7,,,,keyboard,digit#9 shown,"{""value"":7,""note"":""digit#9 shown"",""pd_used"":1}",2,0.016667,60.000000,1
Sergio_G01_CNS-LLF5HT7Y0,S01,OFFmed_OFFstim,20260131_201625,2026-01-31 20:16:34.865951,1,0,reading,PROBE_COUNT_OK_9,71,2026-01-31 20:17:35.535398,60.258918,0.415754,39.656322,slot#9,NaN,,,keyboard,probe_digit#9,"{""value"":""slot#9"",""entered"":null,""rt"":39.656321700000262,""note"":""probe_digit#9""}",2,0.016667,60.000000,1
Sergio_G01_CNS-LLF5HT7Y0,S01,OFFmed_OFFstim,20260131_201625,2026-01-31 20:16:34.865951,1,0,reading,DIGIT_READ9_OFF,219,2026-01-31 20:17:35.539305,60.674672,0.000000,,7,,,,keyboard,digit#9 off,"{""value"":7,""note"":""digit#9 off"",""pd_used"":0}",2,0.016667,60.000000,1
Sergio_G01_CNS-LLF5HT7Y0,S01,OFFmed_OFFstim,20260131_201625,2026-01-31 20:16:34.865951,1,0,reading,POSTREAD_FIX9_ON,239,2026-01-31 20:17:35.540811,60.674672,1.824590,,,,,,keyboard,after digit#9,"{""note"":""after digit#9""}",2,0.016667,60.000000,1
Sergio_G01_CNS-LLF5HT7Y0,S01,OFFmed_OFFstim,20260131_201625,2026-01-31 20:16:34.865951,1,0,reading,POSTREAD_FIX9_OFF,249,2026-01-31 20:17:37.364600,62.499262,0.011986,,,,,,keyboard,after digit#9,"{""note"":""after digit#9"",""pd_used"":0}",2,0.016667,60.000000,1
Sergio_G01_CNS-LLF5HT7Y0,S01,OFFmed_OFFstim,20260131_201625,2026-01-31 20:16:34.865951,1,0,reading,DIGIT_READ10_ON,210,2026-01-31 20:17:37.375878,62.511248,0.716798,,3,,,,keyboard,digit#10 shown,"{""value"":3,""note"":""digit#10 shown"",""pd_used"":1}",2,0.016667,60.000000,1
Sergio_G01_CNS-LLF5HT7Y0,S01,OFFmed_OFFstim,20260131_201625,2026-01-31 20:16:34.865951,1,0,reading,PROBE_COUNT_OK_10,71,2026-01-31 20:17:38.563109,63.228047,0.474234,42.625450,slot#10,NaN,,,keyboard,probe_digit#10,"{""value"":""slot#10"",""entered"":null,""rt"":42.625450299998192,""note"":""probe_digit#10""}",2,0.016667,60.000000,1
Sergio_G01_CNS-LLF5HT7Y0,S01,OFFmed_OFFstim,20260131_201625,2026-01-31 20:16:34.865951,1,0,reading,DIGIT_READ10_OFF,220,2026-01-31 20:17:38.566854,63.702280,0.000000,,3,,,,keyboard,digit#10 off,"{""value"":3,""note"":""digit#10 off"",""pd_used"":0}",2,0.016667,60.000000,1
Sergio_G01_CNS-LLF5HT7Y0,S01,OFFmed_OFFstim,20260131_201625,2026-01-31 20:16:34.865951,1,0,reading,POSTREAD_FIX10_ON,240,2026-01-31 20:17:38.568252,63.702280,3.127930,,,,,,keyboard,after digit#10,"{""note"":""after digit#10""}",2,0.016667,60.000000,1
Sergio_G01_CNS-LLF5HT7Y0,S01,OFFmed_OFFstim,20260131_201625,2026-01-31 20:16:34.865951,1,0,reading,POSTREAD_FIX10_OFF,250,2026-01-31 20:17:41.695362,66.830210,0.004321,,,,,,keyboard,after digit#10,"{""note"":""after digit#10"",""pd_used"":0}",2,0.016667,60.000000,1
Sergio_G01_CNS-LLF5HT7Y0,S01,OFFmed_OFFstim,20260131_201625,2026-01-31 20:16:34.865951,1,0,reading,CONTROL_END,24,2026-01-31 20:17:41.699342,66.834531,0.008671,,,,,,keyboard,,{},2,0.016667,60.000000,1
Sergio_G01_CNS-LLF5HT7Y0,S01,OFFmed_OFFstim,20260131_201625,2026-01-31 20:16:34.865951,1,0,reading,START_PAGE_ON,4,2026-01-31 20:17:41.708667,66.843203,0.010878,,,,,,keyboard,,"{""pd_used"":0}",2,0.016667,60.000000,1
Sergio_G01_CNS-LLF5HT7Y0,S01,OFFmed_OFFstim,20260131_201625,2026-01-31 20:16:34.865951,1,0,reading,START_PAGE_ON,4,2026-01-31 20:17:41.708667,66.843203,2.000590,,,,,,keyboard,,"{""pd_used"":0}",2,0.016667,60.000000,1
Sergio_G01_CNS-LLF5HT7Y0,S01,OFFmed_OFFstim,20260131_201625,2026-01-31 20:16:34.865951,1,0,reading,START_PAGE_ON,4,2026-01-31 20:17:41.708667,66.843203,2.305916,,,,,,keyboard,,"{""pd_used"":0}",2,0.016667,60.000000,1
Sergio_G01_CNS-LLF5HT7Y0,S01,OFFmed_OFFstim,20260131_201625,2026-01-31 20:16:34.865951,1,0,reading,SESSION_START,1,2026-01-31 20:17:44.014799,69.149119,0.003948,,,,,,keyboard,,{},2,0.016667,60.000000,1
Sergio_G01_CNS-LLF5HT7Y0,S01,OFFmed_OFFstim,20260131_201625,2026-01-31 20:16:34.865951,1,1,reading,TRIAL_CHANGE,22,2026-01-31 20:17:44.017905,69.153067,0.002127,,,,,,keyboard,trial transition,"{""note"":""trial transition""}",2,0.016667,60.000000,1
Sergio_G01_CNS-LLF5HT7Y0,S01,OFFmed_OFFstim,20260131_201625,2026-01-31 20:16:34.865951,1,1,reading,TRIAL_START,20,2026-01-31 20:17:44.019891,69.155194,0.004249,,,,,,keyboard,,{},2,0.016667,60.000000,1
Sergio_G01_CNS-LLF5HT7Y0,S01,OFFmed_OFFstim,20260131_201625,2026-01-31 20:16:34.865951,1,1,fix1,FIX1_ON,30,2026-01-31 20:17:44.024592,69.159444,3.373970,,,,,,keyboard,,"{""pd_used"":0}",2,0.016667,60.000000,1
Sergio_G01_CNS-LLF5HT7Y0,S01,OFFmed_OFFstim,20260131_201625,2026-01-31 20:16:34.865951,1,1,fix1,FIX1_OFF,31,2026-01-31 20:17:47.398408,72.533413,0.005071,,,,,,keyboard,,"{""pd_used"":0}",2,0.016667,60.000000,1
Sergio_G01_CNS-LLF5HT7Y0,S01,OFFmed_OFFstim,20260131_201625,2026-01-31 20:16:34.865951,1,1,digit,DIGIT1_ON,141,2026-01-31 20:17:47.403018,72.538484,0.505386,,6,,,,keyboard,digit#1 shown,"{""value"":6,""note"":""digit#1 shown"",""pd_used"":1}",2,0.016667,60.000000,1
Sergio_G01_CNS-LLF5HT7Y0,S01,OFFmed_OFFstim,20260131_201625,2026-01-31 20:16:34.865951,1,1,digit,DIGIT1_OFF,146,2026-01-31 20:17:47.909185,73.043871,0.000000,,6,,,,keyboard,digit#1 off,"{""value"":6,""note"":""digit#1 off"",""pd_used"":0}",2,0.016667,60.000000,1
Sergio_G01_CNS-LLF5HT7Y0,S01,OFFmed_OFFstim,20260131_201625,2026-01-31 20:16:34.865951,1,1,digit,POSTDIG_FIX1_ON,151,2026-01-31 20:17:47.911599,73.043871,1.863394,,,,,,keyboard,after digit#1,"{""note"":""after digit#1""}",2,0.016667,60.000000,1
Sergio_G01_CNS-LLF5HT7Y0,S01,OFFmed_OFFstim,20260131_201625,2026-01-31 20:16:34.865951,1,1,digit,POSTDIG_FIX1_OFF,156,2026-01-31 20:17:49.772369,74.907265,0.004942,,,,,,keyboard,after digit#1,"{""note"":""after digit#1"",""pd_used"":0}",2,0.016667,60.000000,1
Sergio_G01_CNS-LLF5HT7Y0,S01,OFFmed_OFFstim,20260131_201625,2026-01-31 20:16:34.865951,1,1,digit,DIGIT2_ON,142,2026-01-31 20:17:49.777126,74.912206,0.506286,,7,,,,keyboard,digit#2 shown,"{""value"":7,""note"":""digit#2 shown"",""pd_used"":1}",2,0.016667,60.000000,1
Sergio_G01_CNS-LLF5HT7Y0,S01,OFFmed_OFFstim,20260131_201625,2026-01-31 20:16:34.865951,1,1,digit,DIGIT2_OFF,147,2026-01-31 20:17:50.283812,75.418492,0.000000,,7,,,,keyboard,digit#2 off,"{""value"":7,""note"":""digit#2 off"",""pd_used"":0}",2,0.016667,60.000000,1
Sergio_G01_CNS-LLF5HT7Y0,S01,OFFmed_OFFstim,20260131_201625,2026-01-31 20:16:34.865951,1,1,digit,POSTDIG_FIX2_ON,152,2026-01-31 20:17:50.286253,75.418492,1.807653,,,,,,keyboard,after digit#2,"{""note"":""after digit#2""}",2,0.016667,60.000000,1
Sergio_G01_CNS-LLF5HT7Y0,S01,OFFmed_OFFstim,20260131_201625,2026-01-31 20:16:34.865951,1,1,digit,POSTDIG_FIX2_OFF,157,2026-01-31 20:17:52.090986,77.226145,0.006634,,,,,,keyboard,after digit#2,"{""note"":""after digit#2"",""pd_used"":0}",2,0.016667,60.000000,1
Sergio_G01_CNS-LLF5HT7Y0,S01,OFFmed_OFFstim,20260131_201625,2026-01-31 20:16:34.865951,1,1,digit,DIGIT3_ON,143,2026-01-31 20:17:52.097337,77.232779,0.507379,,3,,,,keyboard,digit#3 shown,"{""value"":3,""note"":""digit#3 shown"",""pd_used"":1}",2,0.016667,60.000000,1
Sergio_G01_CNS-LLF5HT7Y0,S01,OFFmed_OFFstim,20260131_201625,2026-01-31 20:16:34.865951,1,1,digit,DIGIT3_OFF,148,2026-01-31 20:17:52.605175,77.740158,0.000000,,3,,,,keyboard,digit#3 off,"{""value"":3,""note"":""digit#3 off"",""pd_used"":0}",2,0.016667,60.000000,1
Sergio_G01_CNS-LLF5HT7Y0,S01,OFFmed_OFFstim,20260131_201625,2026-01-31 20:16:34.865951,1,1,digit,POSTDIG_FIX3_ON,153,2026-01-31 20:17:52.607312,77.740158,1.986502,,,,,,keyboard,after digit#3,"{""note"":""after digit#3""}",2,0.016667,60.000000,1
Sergio_G01_CNS-LLF5HT7Y0,S01,OFFmed_OFFstim,20260131_201625,2026-01-31 20:16:34.865951,1,1,digit,POSTDIG_FIX3_OFF,158,2026-01-31 20:17:54.591892,79.726660,0.005563,,,,,,keyboard,after digit#3,"{""note"":""after digit#3"",""pd_used"":0}",2,0.016667,60.000000,1
Sergio_G01_CNS-LLF5HT7Y0,S01,OFFmed_OFFstim,20260131_201625,2026-01-31 20:16:34.865951,1,1,digit,DIGIT4_ON,144,2026-01-31 20:17:54.596993,79.732223,0.504963,,6,,,,keyboard,digit#4 shown,"{""value"":6,""note"":""digit#4 shown"",""pd_used"":1}",2,0.016667,60.000000,1
Sergio_G01_CNS-LLF5HT7Y0,S01,OFFmed_OFFstim,20260131_201625,2026-01-31 20:16:34.865951,1,1,digit,DIGIT4_OFF,149,2026-01-31 20:17:55.102012,80.237187,0.000000,,6,,,,keyboard,digit#4 off,"{""value"":6,""note"":""digit#4 off"",""pd_used"":0}",2,0.016667,60.000000,1
Sergio_G01_CNS-LLF5HT7Y0,S01,OFFmed_OFFstim,20260131_201625,2026-01-31 20:16:34.865951,1,1,digit,POSTDIG_FIX4_ON,154,2026-01-31 20:17:55.103899,80.237187,1.714655,,,,,,keyboard,after digit#4,"{""note"":""after digit#4""}",2,0.016667,60.000000,1
Sergio_G01_CNS-LLF5HT7Y0,S01,OFFmed_OFFstim,20260131_201625,2026-01-31 20:16:34.865951,1,1,digit,POSTDIG_FIX4_OFF,159,2026-01-31 20:17:56.816636,81.951841,0.005980,,,,,,keyboard,after digit#4,"{""note"":""after digit#4"",""pd_used"":0}",2,0.016667,60.000000,1
Sergio_G01_CNS-LLF5HT7Y0,S01,OFFmed_OFFstim,20260131_201625,2026-01-31 20:16:34.865951,1,1,digit,DIGIT5_ON,145,2026-01-31 20:17:56.822420,81.957822,0.507604,,6,,,,keyboard,digit#5 shown,"{""value"":6,""note"":""digit#5 shown"",""pd_used"":1}",2,0.016667,60.000000,1
Sergio_G01_CNS-LLF5HT7Y0,S01,OFFmed_OFFstim,20260131_201625,2026-01-31 20:16:34.865951,1,1,digit,DIGIT5_OFF,150,2026-01-31 20:17:57.330782,82.465425,0.000000,,6,,,,keyboard,digit#5 off,"{""value"":6,""note"":""digit#5 off"",""pd_used"":0}",2,0.016667,60.000000,1
Sergio_G01_CNS-LLF5HT7Y0,S01,OFFmed_OFFstim,20260131_201625,2026-01-31 20:16:34.865951,1,1,digit,POSTDIG_FIX5_ON,155,2026-01-31 20:17:57.334298,82.465425,3.286283,,,,,,keyboard,after digit#5,"{""note"":""after digit#5""}",2,0.016667,60.000000,1
Sergio_G01_CNS-LLF5HT7Y0,S01,OFFmed_OFFstim,20260131_201625,2026-01-31 20:16:34.865951,1,1,digit,POSTDIG_FIX5_OFF,160,2026-01-31 20:18:00.616591,85.751708,0.010550,,,,,,keyboard,after digit#5,"{""note"":""after digit#5"",""pd_used"":0}",2,0.016667,60.000000,1
Sergio_G01_CNS-LLF5HT7Y0,S01,OFFmed_OFFstim,20260131_201625,2026-01-31 20:16:34.865951,1,1,distractor,DISTRACTOR_ON,50,2026-01-31 20:18:00.626443,85.762258,1.730914,,5+1=6,,,,keyboard,,"{""value"":""5+1=6"",""isCorrectTruth"":true,""trueSum"":6,""pd_used"":1}",2,0.016667,60.000000,1
Sergio_G01_CNS-LLF5HT7Y0,S01,OFFmed_OFFstim,20260131_201625,2026-01-31 20:16:34.865951,1,1,distractor,DISTRACTOR_ANS,51,2026-01-31 20:18:03.046965,87.493172,0.000000,1.730914,5+1=6,F,0,,keyboard,key= (False),"{""value"":""5+1=6"",""entered"":""F"",""rt"":1.7309137000011106,""correct"":0,""note"":""key= (False)"",""truth"":true,""trueSum"":6,""shownSum"":6,""a"":5,""b"":1}",2,0.016667,60.000000,1
Sergio_G01_CNS-LLF5HT7Y0,S01,OFFmed_OFFstim,20260131_201625,2026-01-31 20:16:34.865951,1,1,distractor,ANS_WRONG,101,2026-01-31 20:18:03.053212,87.493172,0.700515,,,,,,keyboard,,{},2,0.016667,60.000000,1
Sergio_G01_CNS-LLF5HT7Y0,S01,OFFmed_OFFstim,20260131_201625,2026-01-31 20:16:34.865951,1,1,distractor,DISTRACTOR_OFF,52,2026-01-31 20:18:03.057854,88.193687,0.000000,,,,,,keyboard,,"{""pd_used"":0}",2,0.016667,60.000000,1
Sergio_G01_CNS-LLF5HT7Y0,S01,OFFmed_OFFstim,20260131_201625,2026-01-31 20:16:34.865951,1,1,distractor,FIX2_ON,60,2026-01-31 20:18:03.058814,88.193687,3.284450,,,,,,keyboard,immediate after response,"{""note"":""immediate after response""}",2,0.016667,60.000000,1
Sergio_G01_CNS-LLF5HT7Y0,S01,OFFmed_OFFstim,20260131_201625,2026-01-31 20:16:34.865951,1,1,fix2,FIX2_OFF,61,2026-01-31 20:18:06.344158,91.478137,0.010447,,,,,,keyboard,,"{""pd_used"":0}",2,0.016667,60.000000,1
Sergio_G01_CNS-LLF5HT7Y0,S01,OFFmed_OFFstim,20260131_201625,2026-01-31 20:16:34.865951,1,1,probe,DIGIT_RECALL_LINE_1,161,2026-01-31 20:18:06.353113,91.488584,0.586022,,1,,,,keyboard,first recall question,"{""value"":1,""note"":""first recall question"",""pd_used"":1}",2,0.016667,60.000000,1
Sergio_G01_CNS-LLF5HT7Y0,S01,OFFmed_OFFstim,20260131_201625,2026-01-31 20:16:34.865951,1,1,probe,PROBE_DIGIT_OK_1,71,2026-01-31 20:18:07.330782,92.074606,0.395480,0.592740,slot#1,NaN,,,keyboard,probe_digit#1,"{""value"":""slot#1"",""entered"":null,""rt"":0.59274000000004889,""note"":""probe_digit#1""}",2,0.016667,60.000000,1
Sergio_G01_CNS-LLF5HT7Y0,S01,OFFmed_OFFstim,20260131_201625,2026-01-31 20:16:34.865951,1,1,probe,DIGIT1_OFF,146,2026-01-31 20:18:07.334692,92.470086,0.000000,,6,,,,keyboard,digit#1 off,"{""value"":6,""note"":""digit#1 off"",""pd_used"":0}",2,0.016667,60.000000,1
Sergio_G01_CNS-LLF5HT7Y0,S01,OFFmed_OFFstim,20260131_201625,2026-01-31 20:16:34.865951,1,1,probe,POSTDIG_FIX1_ON,151,2026-01-31 20:18:07.336363,92.470086,1.934014,,,,,,keyboard,after digit#1,"{""note"":""after digit#1""}",2,0.016667,60.000000,1
Sergio_G01_CNS-LLF5HT7Y0,S01,OFFmed_OFFstim,20260131_201625,2026-01-31 20:16:34.865951,1,1,probe,POSTDIG_FIX1_OFF,156,2026-01-31 20:18:09.269327,94.404100,0.012465,,,,,,keyboard,after digit#1,"{""note"":""after digit#1"",""pd_used"":0}",2,0.016667,60.000000,1
Sergio_G01_CNS-LLF5HT7Y0,S01,OFFmed_OFFstim,20260131_201625,2026-01-31 20:16:34.865951,1,1,probe,DIGIT_RECALL_LINE_2,162,2026-01-31 20:18:09.281607,94.416565,0.794780,,2,,,,keyboard,next recall question,"{""value"":2,""note"":""next recall question"",""pd_used"":1}",2,0.016667,60.000000,1
Sergio_G01_CNS-LLF5HT7Y0,S01,OFFmed_OFFstim,20260131_201625,2026-01-31 20:16:34.865951,1,1,probe,PROBE_DIGIT_OK_2,71,2026-01-31 20:18:10.428672,95.211345,0.357696,3.729479,slot#2,NaN,,,keyboard,probe_digit#2,"{""value"":""slot#2"",""entered"":null,""rt"":3.7294786000020395,""note"":""probe_digit#2""}",2,0.016667,60.000000,1
Sergio_G01_CNS-LLF5HT7Y0,S01,OFFmed_OFFstim,20260131_201625,2026-01-31 20:16:34.865951,1,1,probe,DIGIT2_OFF,147,2026-01-31 20:18:10.433728,95.569041,0.000000,,6,,,,keyboard,digit#2 off,"{""value"":6,""note"":""digit#2 off"",""pd_used"":0}",2,0.016667,60.000000,1
Sergio_G01_CNS-LLF5HT7Y0,S01,OFFmed_OFFstim,20260131_201625,2026-01-31 20:16:34.865951,1,1,probe,POSTDIG_FIX2_ON,152,2026-01-31 20:18:10.435545,95.569041,1.588960,,,,,,keyboard,after digit#2,"{""note"":""after digit#2""}",2,0.016667,60.000000,1
Sergio_G01_CNS-LLF5HT7Y0,S01,OFFmed_OFFstim,20260131_201625,2026-01-31 20:16:34.865951,1,1,probe,POSTDIG_FIX2_OFF,157,2026-01-31 20:18:12.022315,97.158001,0.010598,,,,,,keyboard,after digit#2,"{""note"":""after digit#2"",""pd_used"":0}",2,0.016667,60.000000,1
Sergio_G01_CNS-LLF5HT7Y0,S01,OFFmed_OFFstim,20260131_201625,2026-01-31 20:16:34.865951,1,1,probe,DIGIT_RECALL_LINE_3,163,2026-01-31 20:18:12.033429,97.168598,0.710158,,3,,,,keyboard,next recall question,"{""value"":3,""note"":""next recall question"",""pd_used"":1}",2,0.016667,60.000000,1
Sergio_G01_CNS-LLF5HT7Y0,S01,OFFmed_OFFstim,20260131_201625,2026-01-31 20:16:34.865951,1,1,probe,PROBE_DIGIT_OK_3,71,2026-01-31 20:18:13.126337,97.878756,0.387496,6.396890,slot#3,NaN,,,keyboard,probe_digit#3,"{""value"":""slot#3"",""entered"":null,""rt"":6.3968898000021,""note"":""probe_digit#3""}",2,0.016667,60.000000,1
Sergio_G01_CNS-LLF5HT7Y0,S01,OFFmed_OFFstim,20260131_201625,2026-01-31 20:16:34.865951,1,1,probe,DIGIT3_OFF,148,2026-01-31 20:18:13.130914,98.266252,0.000000,,6,,,,keyboard,digit#3 off,"{""value"":6,""note"":""digit#3 off"",""pd_used"":0}",2,0.016667,60.000000,1
Sergio_G01_CNS-LLF5HT7Y0,S01,OFFmed_OFFstim,20260131_201625,2026-01-31 20:16:34.865951,1,1,probe,POSTDIG_FIX3_ON,153,2026-01-31 20:18:13.132601,98.266252,1.766669,,,,,,keyboard,after digit#3,"{""note"":""after digit#3""}",2,0.016667,60.000000,1
Sergio_G01_CNS-LLF5HT7Y0,S01,OFFmed_OFFstim,20260131_201625,2026-01-31 20:16:34.865951,1,1,probe,POSTDIG_FIX3_OFF,158,2026-01-31 20:18:14.897922,100.032921,0.012529,,,,,,keyboard,after digit#3,"{""note"":""after digit#3"",""pd_used"":0}",2,0.016667,60.000000,1
Sergio_G01_CNS-LLF5HT7Y0,S01,OFFmed_OFFstim,20260131_201625,2026-01-31 20:16:34.865951,1,1,probe,DIGIT_RECALL_LINE_4,164,2026-01-31 20:18:14.910482,100.045450,0.455902,,4,,,,keyboard,next recall question,"{""value"":4,""note"":""next recall question"",""pd_used"":1}",2,0.016667,60.000000,1
Sergio_G01_CNS-LLF5HT7Y0,S01,OFFmed_OFFstim,20260131_201625,2026-01-31 20:16:34.865951,1,1,probe,PROBE_DIGIT_OK_4,71,2026-01-31 20:18:15.768574,100.501352,0.406504,9.019486,slot#4,NaN,,,keyboard,probe_digit#4,"{""value"":""slot#4"",""entered"":null,""rt"":9.0194855000008829,""note"":""probe_digit#4""}",2,0.016667,60.000000,1
Sergio_G01_CNS-LLF5HT7Y0,S01,OFFmed_OFFstim,20260131_201625,2026-01-31 20:16:34.865951,1,1,probe,DIGIT4_OFF,149,2026-01-31 20:18:15.772415,100.907856,0.000000,,6,,,,keyboard,digit#4 off,"{""value"":6,""note"":""digit#4 off"",""pd_used"":0}",2,0.016667,60.000000,1
Sergio_G01_CNS-LLF5HT7Y0,S01,OFFmed_OFFstim,20260131_201625,2026-01-31 20:16:34.865951,1,1,probe,POSTDIG_FIX4_ON,154,2026-01-31 20:18:15.774425,100.907856,1.795550,,,,,,keyboard,after digit#4,"{""note"":""after digit#4""}",2,0.016667,60.000000,1
Sergio_G01_CNS-LLF5HT7Y0,S01,OFFmed_OFFstim,20260131_201625,2026-01-31 20:16:34.865951,1,1,probe,POSTDIG_FIX4_OFF,159,2026-01-31 20:18:17.568663,102.703406,0.012265,,,,,,keyboard,after digit#4,"{""note"":""after digit#4"",""pd_used"":0}",2,0.016667,60.000000,1
Sergio_G01_CNS-LLF5HT7Y0,S01,OFFmed_OFFstim,20260131_201625,2026-01-31 20:16:34.865951,1,1,probe,DIGIT_RECALL_LINE_5,165,2026-01-31 20:18:17.580504,102.715672,0.421722,,5,,,,keyboard,next recall question,"{""value"":5,""note"":""next recall question"",""pd_used"":1}",2,0.016667,60.000000,1
Sergio_G01_CNS-LLF5HT7Y0,S01,OFFmed_OFFstim,20260131_201625,2026-01-31 20:16:34.865951,1,1,probe,PROBE_DIGIT_OK_5,71,2026-01-31 20:18:18.418923,103.137393,0.422787,11.655527,slot#5,NaN,,,keyboard,probe_digit#5,"{""value"":""slot#5"",""entered"":null,""rt"":11.655526800001098,""note"":""probe_digit#5""}",2,0.016667,60.000000,1
Sergio_G01_CNS-LLF5HT7Y0,S01,OFFmed_OFFstim,20260131_201625,2026-01-31 20:16:34.865951,1,1,probe,DIGIT5_OFF,150,2026-01-31 20:18:18.424696,103.560180,0.000000,,6,,,,keyboard,digit#5 off,"{""value"":6,""note"":""digit#5 off"",""pd_used"":0}",2,0.016667,60.000000,1
Sergio_G01_CNS-LLF5HT7Y0,S01,OFFmed_OFFstim,20260131_201625,2026-01-31 20:16:34.865951,1,1,probe,POSTDIG_FIX5_ON,155,2026-01-31 20:18:18.427142,103.560180,3.365634,,,,,,keyboard,after digit#5,"{""note"":""after digit#5""}",2,0.016667,60.000000,1
Sergio_G01_CNS-LLF5HT7Y0,S01,OFFmed_OFFstim,20260131_201625,2026-01-31 20:16:34.865951,1,1,probe,POSTDIG_FIX5_OFF,160,2026-01-31 20:18:21.790949,106.925814,0.003622,,,,,,keyboard,after digit#5,"{""note"":""after digit#5"",""pd_used"":0}",2,0.016667,60.000000,1
Sergio_G01_CNS-LLF5HT7Y0,S01,OFFmed_OFFstim,20260131_201625,2026-01-31 20:16:34.865951,1,1,probe,PROBE_DONE,73,2026-01-31 20:18:21.793533,106.929436,0.000886,,,,,,keyboard,probe complete,"{""value"":"""",""note"":""probe complete""}",2,0.016667,60.000000,1
Sergio_G01_CNS-LLF5HT7Y0,S01,OFFmed_OFFstim,20260131_201625,2026-01-31 20:16:34.865951,1,1,probe,TRIAL_END,21,2026-01-31 20:18:21.794309,106.930322,0.000713,,,,,,keyboard,,{},2,0.016667,60.000000,1
Sergio_G01_CNS-LLF5HT7Y0,S01,OFFmed_OFFstim,20260131_201625,2026-01-31 20:16:34.865951,1,2,probe,TRIAL_CHANGE,22,2026-01-31 20:18:21.795068,106.931036,0.000691,,,,,,keyboard,trial transition,"{""note"":""trial transition""}",2,0.016667,60.000000,1
Sergio_G01_CNS-LLF5HT7Y0,S01,OFFmed_OFFstim,20260131_201625,2026-01-31 20:16:34.865951,1,2,probe,TRIAL_START,20,2026-01-31 20:18:21.795693,106.931726,0.006536,,,,,,keyboard,,{},2,0.016667,60.000000,1
Sergio_G01_CNS-LLF5HT7Y0,S01,OFFmed_OFFstim,20260131_201625,2026-01-31 20:16:34.865951,1,2,fix1,FIX1_ON,30,2026-01-31 20:18:21.803114,106.938263,3.460159,,,,,,keyboard,,"{""pd_used"":0}",2,0.016667,60.000000,1
Sergio_G01_CNS-LLF5HT7Y0,S01,OFFmed_OFFstim,20260131_201625,2026-01-31 20:16:34.865951,1,2,fix1,FIX1_OFF,31,2026-01-31 20:18:25.263591,110.398422,0.005146,,,,,,keyboard,,"{""pd_used"":0}",2,0.016667,60.000000,1
Sergio_G01_CNS-LLF5HT7Y0,S01,OFFmed_OFFstim,20260131_201625,2026-01-31 20:16:34.865951,1,2,digit,DIGIT1_ON,141,2026-01-31 20:18:25.268085,110.403567,0.503720,,1,,,,keyboard,digit#1 shown,"{""value"":1,""note"":""digit#1 shown"",""pd_used"":1}",2,0.016667,60.000000,1
Sergio_G01_CNS-LLF5HT7Y0,S01,OFFmed_OFFstim,20260131_201625,2026-01-31 20:16:34.865951,1,2,digit,DIGIT1_OFF,146,2026-01-31 20:18:25.772074,110.907288,0.000000,,1,,,,keyboard,digit#1 off,"{""value"":1,""note"":""digit#1 off"",""pd_used"":0}",2,0.016667,60.000000,1
Sergio_G01_CNS-LLF5HT7Y0,S01,OFFmed_OFFstim,20260131_201625,2026-01-31 20:16:34.865951,1,2,digit,POSTDIG_FIX1_ON,151,2026-01-31 20:18:25.773991,110.907288,1.892440,,,,,,keyboard,after digit#1,"{""note"":""after digit#1""}",2,0.016667,60.000000,1
Sergio_G01_CNS-LLF5HT7Y0,S01,OFFmed_OFFstim,20260131_201625,2026-01-31 20:16:34.865951,1,2,digit,POSTDIG_FIX1_OFF,156,2026-01-31 20:18:27.664723,112.799728,0.006693,,,,,,keyboard,after digit#1,"{""note"":""after digit#1"",""pd_used"":0}",2,0.016667,60.000000,1
Sergio_G01_CNS-LLF5HT7Y0,S01,OFFmed_OFFstim,20260131_201625,2026-01-31 20:16:34.865951,1,2,digit,DIGIT2_ON,142,2026-01-31 20:18:27.670528,112.806421,0.502762,,5,,,,keyboard,digit#2 shown,"{""value"":5,""note"":""digit#2 shown"",""pd_used"":1}",2,0.016667,60.000000,1
Sergio_G01_CNS-LLF5HT7Y0,S01,OFFmed_OFFstim,20260131_201625,2026-01-31 20:16:34.865951,1,2,digit,DIGIT2_OFF,147,2026-01-31 20:18:28.174024,113.309183,0.000000,,5,,,,keyboard,digit#2 off,"{""value"":5,""note"":""digit#2 off"",""pd_used"":0}",2,0.016667,60.000000,1
Sergio_G01_CNS-LLF5HT7Y0,S01,OFFmed_OFFstim,20260131_201625,2026-01-31 20:16:34.865951,1,2,digit,POSTDIG_FIX2_ON,152,2026-01-31 20:18:28.175688,113.309183,1.711135,,,,,,keyboard,after digit#2,"{""note"":""after digit#2""}",2,0.016667,60.000000,1
Sergio_G01_CNS-LLF5HT7Y0,S01,OFFmed_OFFstim,20260131_201625,2026-01-31 20:16:34.865951,1,2,digit,POSTDIG_FIX2_OFF,157,2026-01-31 20:18:29.885039,115.020318,0.004042,,,,,,keyboard,after digit#2,"{""note"":""after digit#2"",""pd_used"":0}",2,0.016667,60.000000,1
Sergio_G01_CNS-LLF5HT7Y0,S01,OFFmed_OFFstim,20260131_201625,2026-01-31 20:16:34.865951,1,2,digit,DIGIT3_ON,143,2026-01-31 20:18:29.888781,115.024360,0.505413,,1,,,,keyboard,digit#3 shown,"{""value"":1,""note"":""digit#3 shown"",""pd_used"":1}",2,0.016667,60.000000,1
Sergio_G01_CNS-LLF5HT7Y0,S01,OFFmed_OFFstim,20260131_201625,2026-01-31 20:16:34.865951,1,2,digit,DIGIT3_OFF,148,2026-01-31 20:18:30.394034,115.529773,0.000000,,1,,,,keyboard,digit#3 off,"{""value"":1,""note"":""digit#3 off"",""pd_used"":0}",2,0.016667,60.000000,1
Sergio_G01_CNS-LLF5HT7Y0,S01,OFFmed_OFFstim,20260131_201625,2026-01-31 20:16:34.865951,1,2,digit,POSTDIG_FIX3_ON,153,2026-01-31 20:18:30.394752,115.529773,1.971538,,,,,,keyboard,after digit#3,"{""note"":""after digit#3""}",2,0.016667,60.000000,1
Sergio_G01_CNS-LLF5HT7Y0,S01,OFFmed_OFFstim,20260131_201625,2026-01-31 20:16:34.865951,1,2,digit,POSTDIG_FIX3_OFF,158,2026-01-31 20:18:32.365539,117.501311,0.002964,,,,,,keyboard,after digit#3,"{""note"":""after digit#3"",""pd_used"":0}",2,0.016667,60.000000,1
Sergio_G01_CNS-LLF5HT7Y0,S01,OFFmed_OFFstim,20260131_201625,2026-01-31 20:16:34.865951,1,2,digit,DIGIT4_ON,144,2026-01-31 20:18:32.368320,117.504274,0.503963,,5,,,,keyboard,digit#4 shown,"{""value"":5,""note"":""digit#4 shown"",""pd_used"":1}",2,0.016667,60.000000,1
Sergio_G01_CNS-LLF5HT7Y0,S01,OFFmed_OFFstim,20260131_201625,2026-01-31 20:16:34.865951,1,2,digit,DIGIT4_OFF,149,2026-01-31 20:18:32.873447,118.008238,0.000000,,5,,,,keyboard,digit#4 off,"{""value"":5,""note"":""digit#4 off"",""pd_used"":0}",2,0.016667,60.000000,1
Sergio_G01_CNS-LLF5HT7Y0,S01,OFFmed_OFFstim,20260131_201625,2026-01-31 20:16:34.865951,1,2,digit,POSTDIG_FIX4_ON,154,2026-01-31 20:18:32.875702,118.008238,1.783071,,,,,,keyboard,after digit#4,"{""note"":""after digit#4""}",2,0.016667,60.000000,1
Sergio_G01_CNS-LLF5HT7Y0,S01,OFFmed_OFFstim,20260131_201625,2026-01-31 20:16:34.865951,1,2,digit,POSTDIG_FIX4_OFF,159,2026-01-31 20:18:34.656329,119.791309,0.004152,,,,,,keyboard,after digit#4,"{""note"":""after digit#4"",""pd_used"":0}",2,0.016667,60.000000,1
Sergio_G01_CNS-LLF5HT7Y0,S01,OFFmed_OFFstim,20260131_201625,2026-01-31 20:16:34.865951,1,2,digit,DIGIT5_ON,145,2026-01-31 20:18:34.660112,119.795461,0.504875,,1,,,,keyboard,digit#5 shown,"{""value"":1,""note"":""digit#5 shown"",""pd_used"":1}",2,0.016667,60.000000,1
Sergio_G01_CNS-LLF5HT7Y0,S01,OFFmed_OFFstim,20260131_201625,2026-01-31 20:16:34.865951,1,2,digit,DIGIT5_OFF,150,2026-01-31 20:18:35.165606,120.300336,0.000000,,1,,,,keyboard,digit#5 off,"{""value"":1,""note"":""digit#5 off"",""pd_used"":0}",2,0.016667,60.000000,1
Sergio_G01_CNS-LLF5HT7Y0,S01,OFFmed_OFFstim,20260131_201625,2026-01-31 20:16:34.865951,1,2,digit,POSTDIG_FIX5_ON,155,2026-01-31 20:18:35.167667,120.300336,3.415377,,,,,,keyboard,after digit#5,"{""note"":""after digit#5""}",2,0.016667,60.000000,1
Sergio_G01_CNS-LLF5HT7Y0,S01,OFFmed_OFFstim,20260131_201625,2026-01-31 20:16:34.865951,1,2,digit,POSTDIG_FIX5_OFF,160,2026-01-31 20:18:38.580697,123.715714,0.009461,,,,,,keyboard,after digit#5,"{""note"":""after digit#5"",""pd_used"":0}",2,0.016667,60.000000,1
Sergio_G01_CNS-LLF5HT7Y0,S01,OFFmed_OFFstim,20260131_201625,2026-01-31 20:16:34.865951,1,2,distractor,DISTRACTOR_ON,50,2026-01-31 20:18:38.589745,123.725175,5.371618,,6+2=7,,,,keyboard,,"{""value"":""6+2=7"",""isCorrectTruth"":false,""trueSum"":8,""pd_used"":1}",2,0.016667,60.000000,1
Sergio_G01_CNS-LLF5HT7Y0,S01,OFFmed_OFFstim,20260131_201625,2026-01-31 20:16:34.865951,1,2,distractor,DISTRACTOR_ANS,51,2026-01-31 20:18:44.363762,129.096793,0.000000,5.371618,6+2=7,F,1,,keyboard,key= (False),"{""value"":""6+2=7"",""entered"":""F"",""rt"":5.3716184000004432,""correct"":1,""note"":""key= (False)"",""truth"":false,""trueSum"":8,""shownSum"":7,""a"":6,""b"":2}",2,0.016667,60.000000,1
Sergio_G01_CNS-LLF5HT7Y0,S01,OFFmed_OFFstim,20260131_201625,2026-01-31 20:16:34.865951,1,2,distractor,ANS_CORRECT,100,2026-01-31 20:18:44.365996,129.096793,0.410092,,,,,,keyboard,,{},2,0.016667,60.000000,1
Sergio_G01_CNS-LLF5HT7Y0,S01,OFFmed_OFFstim,20260131_201625,2026-01-31 20:16:34.865951,1,2,distractor,DISTRACTOR_OFF,52,2026-01-31 20:18:44.371452,129.506885,0.000000,,,,,,keyboard,,"{""pd_used"":0}",2,0.016667,60.000000,1
Sergio_G01_CNS-LLF5HT7Y0,S01,OFFmed_OFFstim,20260131_201625,2026-01-31 20:16:34.865951,1,2,distractor,FIX2_ON,60,2026-01-31 20:18:44.373008,129.506885,3.342518,,,,,,keyboard,immediate after response,"{""note"":""immediate after response""}",2,0.016667,60.000000,1
Sergio_G01_CNS-LLF5HT7Y0,S01,OFFmed_OFFstim,20260131_201625,2026-01-31 20:16:34.865951,1,2,fix2,FIX2_OFF,61,2026-01-31 20:18:47.714296,132.849403,0.004150,,,,,,keyboard,,"{""pd_used"":0}",2,0.016667,60.000000,1
Sergio_G01_CNS-LLF5HT7Y0,S01,OFFmed_OFFstim,20260131_201625,2026-01-31 20:16:34.865951,1,2,probe,DIGIT_RECALL_LINE_1,161,2026-01-31 20:18:47.718062,132.853553,NaN,,1,,,,keyboard,first recall question,"{""value"":1,""note"":""first recall question"",""pd_used"":1}",2,0.016667,60.000000,1
