file_version,subject,condition,session,task_start_time,block,trial,phase,event_name,event_code,wall_clock,t_rel_sec,duration_to_next,rt,value_shown,entered_value,correct,key_name,device,note,json,screen_index,ifi,refresh_hz,pd_used
Sergio_G01_CNS-LLF5HT7Y0,S01,OFFmed_OFFstim,20260202_185633,2026-02-02 18:56:44.870605,NaN,NaN,,MIC_NOISEFLOOR,6,2026-02-02 18:56:46.159835,1.288716,4.110882,,,,,,keyboard,,{},1,NaN,NaN,1
Sergio_G01_CNS-LLF5HT7Y0,S01,OFFmed_OFFstim,20260202_185633,2026-02-02 18:56:44.870605,NaN,NaN,,MIC_REC_SPEECH,7,2026-02-02 18:56:50.270917,5.399598,6.626745,,,,,,keyboard,,{},1,NaN,NaN,1
Sergio_G01_CNS-LLF5HT7Y0,S01,OFFmed_OFFstim,20260202_185633,2026-02-02 18:56:44.870605,NaN,NaN,,SESSION_START,1,2026-02-02 18:57:04.470482,19.599387,0.001289,,,,,,keyboard,,{},1,0.004166,240.055808,1
Sergio_G01_CNS-LLF5HT7Y0,S01,OFFmed_OFFstim,20260202_185633,2026-02-02 18:56:44.870605,1,NaN,,BLOCK_START,10,2026-02-02 18:57:04.471467,19.600676,0.013124,,,,,,keyboard,,{},1,0.004166,240.055808,1
Sergio_G01_CNS-LLF5HT7Y0,S01,OFFmed_OFFstim,20260202_185633,2026-02-02 18:56:44.870605,1,0,reading,START_PAGE_ON,4,2026-02-02 18:57:04.484805,19.613800,0.003003,,,,,,keyboard,,"{""pd_used"":0}",1,0.004166,240.055808,1
Sergio_G01_CNS-LLF5HT7Y0,S01,OFFmed_OFFstim,20260202_185633,2026-02-02 18:56:44.870605,1,0,reading,START_PAGE_ON,4,2026-02-02 18:57:04.484805,19.613800,3.767878,,,,,,keyboard,,"{""pd_used"":0}",1,0.004166,240.055808,1
Sergio_G01_CNS-LLF5HT7Y0,S01,OFFmed_OFFstim,20260202_185633,2026-02-02 18:56:44.870605,1,0,reading,START_PAGE_ON,4,2026-02-02 18:57:04.484805,19.613800,4.074782,,,,,,keyboard,,"{""pd_used"":0}",1,0.004166,240.055808,1
Sergio_G01_CNS-LLF5HT7Y0,S01,OFFmed_OFFstim,20260202_185633,2026-02-02 18:56:44.870605,1,0,reading,READING_START,23,2026-02-02 18:57:08.560712,23.688582,0.006956,,,,,,keyboard,,{},1,0.004166,240.055808,1
Sergio_G01_CNS-LLF5HT7Y0,S01,OFFmed_OFFstim,20260202_185633,2026-02-02 18:56:44.870605,1,0,reading,DIGIT_READ1_ON,101,2026-02-02 18:57:08.567097,23.695538,0.722092,,4,,,,keyboard,digit#1 shown,"{""value"":4,""note"":""digit#1 shown"",""pd_used"":1}",1,0.004166,240.055808,1
Sergio_G01_CNS-LLF5HT7Y0,S01,OFFmed_OFFstim,20260202_185633,2026-02-02 18:56:44.870605,1,0,reading,PROBE_COUNT_OK_1,71,2026-02-02 18:57:09.859458,24.417630,0.574428,4.815544,slot#1,NaN,,,keyboard,probe_digit#1,"{""value"":""slot#1"",""entered"":null,""rt"":4.8155444000149146,""note"":""probe_digit#1""}",1,0.004166,240.055808,1
Sergio_G01_CNS-LLF5HT7Y0,S01,OFFmed_OFFstim,20260202_185633,2026-02-02 18:56:44.870605,1,0,reading,DIGIT_READ1_OFF,116,2026-02-02 18:57:09.863390,24.992058,0.000000,,4,,,,keyboard,digit#1 off,"{""value"":4,""note"":""digit#1 off"",""pd_used"":0}",1,0.004166,240.055808,1
Sergio_G01_CNS-LLF5HT7Y0,S01,OFFmed_OFFstim,20260202_185633,2026-02-02 18:56:44.870605,1,0,reading,POSTREAD_FIX1_ON,201,2026-02-02 18:57:09.865128,24.992058,1.509250,,,,,,keyboard,after digit#1,"{""note"":""after digit#1""}",1,0.004166,240.055808,1
Sergio_G01_CNS-LLF5HT7Y0,S01,OFFmed_OFFstim,20260202_185633,2026-02-02 18:56:44.870605,1,0,reading,POSTREAD_FIX1_OFF,216,2026-02-02 18:57:11.373587,26.501308,0.012834,,,,,,keyboard,after digit#1,"{""note"":""after digit#1"",""pd_used"":0}",1,0.004166,240.055808,1
Sergio_G01_CNS-LLF5HT7Y0,S01,OFFmed_OFFstim,20260202_185633,2026-02-02 18:56:44.870605,1,0,reading,DIGIT_READ2_ON,102,2026-02-02 18:57:11.386148,26.514142,0.602484,,3,,,,keyboard,digit#2 shown,"{""value"":3,""note"":""digit#2 shown"",""pd_used"":1}",1,0.004166,240.055808,1
Sergio_G01_CNS-LLF5HT7Y0,S01,OFFmed_OFFstim,20260202_185633,2026-02-02 18:56:44.870605,1,0,reading,PROBE_COUNT_OK_2,71,2026-02-02 18:57:12.560256,27.116626,0.576187,7.514541,slot#2,NaN,,,keyboard,probe_digit#2,"{""value"":""slot#2"",""entered"":null,""rt"":7.51454050000757,""note"":""probe_digit#2""}",1,0.004166,240.055808,1
Sergio_G01_CNS-LLF5HT7Y0,S01,OFFmed_OFFstim,20260202_185633,2026-02-02 18:56:44.870605,1,0,reading,DIGIT_READ2_OFF,117,2026-02-02 18:57:12.564172,27.692813,0.000000,,3,,,,keyboard,digit#2 off,"{""value"":3,""note"":""digit#2 off"",""pd_used"":0}",1,0.004166,240.055808,1
Sergio_G01_CNS-LLF5HT7Y0,S01,OFFmed_OFFstim,20260202_185633,2026-02-02 18:56:44.870605,1,0,reading,POSTREAD_FIX2_ON,202,2026-02-02 18:57:12.565734,27.692813,1.788250,,,,,,keyboard,after digit#2,"{""note"":""after digit#2""}",1,0.004166,240.055808,1
Sergio_G01_CNS-LLF5HT7Y0,S01,OFFmed_OFFstim,20260202_185633,2026-02-02 18:56:44.870605,1,0,reading,POSTREAD_FIX2_OFF,217,2026-02-02 18:57:14.353141,29.481063,0.010639,,,,,,keyboard,after digit#2,"{""note"":""after digit#2"",""pd_used"":0}",1,0.004166,240.055808,1
Sergio_G01_CNS-LLF5HT7Y0,S01,OFFmed_OFFstim,20260202_185633,2026-02-02 18:56:44.870605,1,0,reading,DIGIT_READ3_ON,103,2026-02-02 18:57:14.363486,29.491701,0.634512,,9,,,,keyboard,digit#3 shown,"{""value"":9,""note"":""digit#3 shown"",""pd_used"":1}",1,0.004166,240.055808,1
Sergio_G01_CNS-LLF5HT7Y0,S01,OFFmed_OFFstim,20260202_185633,2026-02-02 18:56:44.870605,1,0,reading,PROBE_COUNT_OK_3,71,2026-02-02 18:57:15.578614,30.126213,0.585006,10.524128,slot#3,NaN,,,keyboard,probe_digit#3,"{""value"":""slot#3"",""entered"":null,""rt"":10.524127600016072,""note"":""probe_digit#3""}",1,0.004166,240.055808,1
Sergio_G01_CNS-LLF5HT7Y0,S01,OFFmed_OFFstim,20260202_185633,2026-02-02 18:56:44.870605,1,0,reading,DIGIT_READ3_OFF,118,2026-02-02 18:57:15.582596,30.711219,0.000000,,9,,,,keyboard,digit#3 off,"{""value"":9,""note"":""digit#3 off"",""pd_used"":0}",1,0.004166,240.055808,1
Sergio_G01_CNS-LLF5HT7Y0,S01,OFFmed_OFFstim,20260202_185633,2026-02-02 18:56:44.870605,1,0,reading,POSTREAD_FIX3_ON,203,2026-02-02 18:57:15.584420,30.711219,1.519866,,,,,,keyboard,after digit#3,"{""note"":""after digit#3""}",1,0.004166,240.055808,1
Sergio_G01_CNS-LLF5HT7Y0,S01,OFFmed_OFFstim,20260202_185633,2026-02-02 18:56:44.870605,1,0,reading,POSTREAD_FIX3_OFF,218,2026-02-02 18:57:17.102862,32.231086,0.014151,,,,,,keyboard,after digit#3,"{""note"":""after digit#3"",""pd_used"":0}",1,0.004166,240.055808,1
Sergio_G01_CNS-LLF5HT7Y0,S01,OFFmed_OFFstim,20260202_185633,2026-02-02 18:56:44.870605,1,0,reading,DIGIT_READ4_ON,104,2026-02-02 18:57:17.117342,32.245237,0.902280,,6,,,,keyboard,digit#4 shown,"{""value"":6,""note"":""digit#4 shown"",""pd_used"":1}",1,0.004166,240.055808,1
Sergio_G01_CNS-LLF5HT7Y0,S01,OFFmed_OFFstim,20260202_185633,2026-02-02 18:56:44.870605,1,0,reading,PROBE_COUNT_OK_4,71,2026-02-02 18:57:18.488121,33.147517,0.473157,13.545431,slot#4,NaN,,,keyboard,probe_digit#4,"{""value"":""slot#4"",""entered"":null,""rt"":13.545430900005158,""note"":""probe_digit#4""}",1,0.004166,240.055808,1
Sergio_G01_CNS-LLF5HT7Y0,S01,OFFmed_OFFstim,20260202_185633,2026-02-02 18:56:44.870605,1,0,reading,DIGIT_READ4_OFF,119,2026-02-02 18:57:18.491900,33.620673,0.000000,,6,,,,keyboard,digit#4 off,"{""value"":6,""note"":""digit#4 off"",""pd_used"":0}",1,0.004166,240.055808,1
Sergio_G01_CNS-LLF5HT7Y0,S01,OFFmed_OFFstim,20260202_185633,2026-02-02 18:56:44.870605,1,0,reading,POSTREAD_FIX4_ON,204,2026-02-02 18:57:18.493254,33.620673,1.680798,,,,,,keyboard,after digit#4,"{""note"":""after digit#4""}",1,0.004166,240.055808,1
Sergio_G01_CNS-LLF5HT7Y0,S01,OFFmed_OFFstim,20260202_185633,2026-02-02 18:56:44.870605,1,0,reading,POSTREAD_FIX4_OFF,219,2026-02-02 18:57:20.173283,35.301471,0.012405,,,,,,keyboard,after digit#4,"{""note"":""after digit#4"",""pd_used"":0}",1,0.004166,240.055808,1
Sergio_G01_CNS-LLF5HT7Y0,S01,OFFmed_OFFstim,20260202_185633,2026-02-02 18:56:44.870605,1,0,reading,DIGIT_READ5_ON,105,2026-02-02 18:57:20.185961,35.313877,0.673686,,2,,,,keyboard,digit#5 shown,"{""value"":2,""note"":""digit#5 shown"",""pd_used"":1}",1,0.004166,240.055808,1
Sergio_G01_CNS-LLF5HT7Y0,S01,OFFmed_OFFstim,20260202_185633,2026-02-02 18:56:44.870605,1,0,reading,PROBE_COUNT_OK_5,71,2026-02-02 18:57:21.358511,35.987562,0.503408,16.385477,slot#5,NaN,,,keyboard,probe_digit#5,"{""value"":""slot#5"",""entered"":null,""rt"":16.385476600000402,""note"":""probe_digit#5""}",1,0.004166,240.055808,1
Sergio_G01_CNS-LLF5HT7Y0,S01,OFFmed_OFFstim,20260202_185633,2026-02-02 18:56:44.870605,1,0,reading,DIGIT_READ5_OFF,120,2026-02-02 18:57:21.362243,36.490970,0.000000,,2,,,,keyboard,digit#5 off,"{""value"":2,""note"":""digit#5 off"",""pd_used"":0}",1,0.004166,240.055808,1
Sergio_G01_CNS-LLF5HT7Y0,S01,OFFmed_OFFstim,20260202_185633,2026-02-02 18:56:44.870605,1,0,reading,POSTREAD_FIX5_ON,205,2026-02-02 18:57:21.363750,36.490970,1.922139,,,,,,keyboard,after digit#5,"{""note"":""after digit#5""}",1,0.004166,240.055808,1
Sergio_G01_CNS-LLF5HT7Y0,S01,OFFmed_OFFstim,20260202_185633,2026-02-02 18:56:44.870605,1,0,reading,POSTREAD_FIX5_OFF,220,2026-02-02 18:57:23.285427,38.413109,0.012442,,,,,,keyboard,after digit#5,"{""note"":""after digit#5"",""pd_used"":0}",1,0.004166,240.055808,1
Sergio_G01_CNS-LLF5HT7Y0,S01,OFFmed_OFFstim,20260202_185633,2026-02-02 18:56:44.870605,1,0,reading,DIGIT_READ6_ON,106,2026-02-02 18:57:23.297724,38.425551,0.775597,,8,,,,keyboard,digit#6 shown,"{""value"":8,""note"":""digit#6 shown"",""pd_used"":1}",1,0.004166,240.055808,1
Sergio_G01_CNS-LLF5HT7Y0,S01,OFFmed_OFFstim,20260202_185633,2026-02-02 18:56:44.870605,1,0,reading,PROBE_COUNT_OK_6,71,2026-02-02 18:57:24.607812,39.201148,0.538951,19.599062,slot#6,NaN,,,keyboard,probe_digit#6,"{""value"":""slot#6"",""entered"":null,""rt"":19.59906210002373,""note"":""probe_digit#6""}",1,0.004166,240.055808,1
Sergio_G01_CNS-LLF5HT7Y0,S01,OFFmed_OFFstim,20260202_185633,2026-02-02 18:56:44.870605,1,0,reading,DIGIT_READ6_OFF,121,2026-02-02 18:57:24.611300,39.740098,0.000000,,8,,,,keyboard,digit#6 off,"{""value"":8,""note"":""digit#6 off"",""pd_used"":0}",1,0.004166,240.055808,1
Sergio_G01_CNS-LLF5HT7Y0,S01,OFFmed_OFFstim,20260202_185633,2026-02-02 18:56:44.870605,1,0,reading,POSTREAD_FIX6_ON,206,2026-02-02 18:57:24.612863,39.740098,1.846150,,,,,,keyboard,after digit#6,"{""note"":""after digit#6""}",1,0.004166,240.055808,1
Sergio_G01_CNS-LLF5HT7Y0,S01,OFFmed_OFFstim,20260202_185633,2026-02-02 18:56:44.870605,1,0,reading,POSTREAD_FIX6_OFF,221,2026-02-02 18:57:26.457636,41.586249,0.012248,,,,,,keyboard,after digit#6,"{""note"":""after digit#6"",""pd_used"":0}",1,0.004166,240.055808,1
Sergio_G01_CNS-LLF5HT7Y0,S01,OFFmed_OFFstim,20260202_185633,2026-02-02 18:56:44.870605,1,0,reading,DIGIT_READ7_ON,107,2026-02-02 18:57:26.469438,41.598496,0.664334,,9,,,,keyboard,digit#7 shown,"{""value"":9,""note"":""digit#7 shown"",""pd_used"":1}",1,0.004166,240.055808,1
Sergio_G01_CNS-LLF5HT7Y0,S01,OFFmed_OFFstim,20260202_185633,2026-02-02 18:56:44.870605,1,0,reading,PROBE_COUNT_OK_7,71,2026-02-02 18:57:27.697451,42.262831,0.566957,22.660745,slot#7,NaN,,,keyboard,probe_digit#7,"{""value"":""slot#7"",""entered"":null,""rt"":22.660745100001805,""note"":""probe_digit#7""}",1,0.004166,240.055808,1
Sergio_G01_CNS-LLF5HT7Y0,S01,OFFmed_OFFstim,20260202_185633,2026-02-02 18:56:44.870605,1,0,reading,DIGIT_READ7_OFF,122,2026-02-02 18:57:27.701059,42.829788,0.000000,,9,,,,keyboard,digit#7 off,"{""value"":9,""note"":""digit#7 off"",""pd_used"":0}",1,0.004166,240.055808,1
Sergio_G01_CNS-LLF5HT7Y0,S01,OFFmed_OFFstim,20260202_185633,2026-02-02 18:56:44.870605,1,0,reading,POSTREAD_FIX7_ON,207,2026-02-02 18:57:27.702621,42.829788,1.611832,,,,,,keyboard,after digit#7,"{""note"":""after digit#7""}",1,0.004166,240.055808,1
Sergio_G01_CNS-LLF5HT7Y0,S01,OFFmed_OFFstim,20260202_185633,2026-02-02 18:56:44.870605,1,0,reading,POSTREAD_FIX7_OFF,222,2026-02-02 18:57:29.313541,44.441620,0.012176,,,,,,keyboard,after digit#7,"{""note"":""after digit#7"",""pd_used"":0}",1,0.004166,240.055808,1
Sergio_G01_CNS-LLF5HT7Y0,S01,OFFmed_OFFstim,20260202_185633,2026-02-02 18:56:44.870605,1,0,reading,DIGIT_READ8_ON,108,2026-02-02 18:57:29.325785,44.453796,0.754942,,4,,,,keyboard,digit#8 shown,"{""value"":4,""note"":""digit#8 shown"",""pd_used"":1}",1,0.004166,240.055808,1
Sergio_G01_CNS-LLF5HT7Y0,S01,OFFmed_OFFstim,20260202_185633,2026-02-02 18:56:44.870605,1,0,reading,PROBE_COUNT_OK_8,71,2026-02-02 18:57:30.717718,45.208738,0.641605,25.606653,slot#8,NaN,,,keyboard,probe_digit#8,"{""value"":""slot#8"",""entered"":null,""rt"":25.606652700022096,""note"":""probe_digit#8""}",1,0.004166,240.055808,1
Sergio_G01_CNS-LLF5HT7Y0,S01,OFFmed_OFFstim,20260202_185633,2026-02-02 18:56:44.870605,1,0,reading,DIGIT_READ8_OFF,123,2026-02-02 18:57:30.721628,45.850343,0.000000,,4,,,,keyboard,digit#8 off,"{""value"":4,""note"":""digit#8 off"",""pd_used"":0}",1,0.004166,240.055808,1
Sergio_G01_CNS-LLF5HT7Y0,S01,OFFmed_OFFstim,20260202_185633,2026-02-02 18:56:44.870605,1,0,reading,POSTREAD_FIX8_ON,208,2026-02-02 18:57:30.723222,45.850343,1.584854,,,,,,keyboard,after digit#8,"{""note"":""after digit#8""}",1,0.004166,240.055808,1
Sergio_G01_CNS-LLF5HT7Y0,S01,OFFmed_OFFstim,20260202_185633,2026-02-02 18:56:44.870605,1,0,reading,POSTREAD_FIX8_OFF,223,2026-02-02 18:57:32.307285,47.435197,0.012642,,,,,,keyboard,after digit#8,"{""note"":""after digit#8"",""pd_used"":0}",1,0.004166,240.055808,1
Sergio_G01_CNS-LLF5HT7Y0,S01,OFFmed_OFFstim,20260202_185633,2026-02-02 18:56:44.870605,1,0,reading,DIGIT_READ9_ON,109,2026-02-02 18:57:32.319494,47.447839,0.875814,,5,,,,keyboard,digit#9 shown,"{""value"":5,""note"":""digit#9 shown"",""pd_used"":1}",1,0.004166,240.055808,1
Sergio_G01_CNS-LLF5HT7Y0,S01,OFFmed_OFFstim,20260202_185633,2026-02-02 18:56:44.870605,1,0,reading,PROBE_COUNT_OK_9,71,2026-02-02 18:57:33.809459,48.323653,0.618286,28.721567,slot#9,NaN,,,keyboard,probe_digit#9,"{""value"":""slot#9"",""entered"":null,""rt"":28.721567300002789,""note"":""probe_digit#9""}",1,0.004166,240.055808,1
Sergio_G01_CNS-LLF5HT7Y0,S01,OFFmed_OFFstim,20260202_185633,2026-02-02 18:56:44.870605,1,0,reading,DIGIT_READ9_OFF,124,2026-02-02 18:57:33.813152,48.941939,0.000000,,5,,,,keyboard,digit#9 off,"{""value"":5,""note"":""digit#9 off"",""pd_used"":0}",1,0.004166,240.055808,1
Sergio_G01_CNS-LLF5HT7Y0,S01,OFFmed_OFFstim,20260202_185633,2026-02-02 18:56:44.870605,1,0,reading,POSTREAD_FIX9_ON,209,2026-02-02 18:57:33.815133,48.941939,1.617899,,,,,,keyboard,after digit#9,"{""note"":""after digit#9""}",1,0.004166,240.055808,1
Sergio_G01_CNS-LLF5HT7Y0,S01,OFFmed_OFFstim,20260202_185633,2026-02-02 18:56:44.870605,1,0,reading,POSTREAD_FIX9_OFF,224,2026-02-02 18:57:35.431562,50.559839,0.012125,,,,,,keyboard,after digit#9,"{""note"":""after digit#9"",""pd_used"":0}",1,0.004166,240.055808,1
Sergio_G01_CNS-LLF5HT7Y0,S01,OFFmed_OFFstim,20260202_185633,2026-02-02 18:56:44.870605,1,0,reading,DIGIT_READ10_ON,110,2026-02-02 18:57:35.444057,50.571964,0.954157,,8,,,,keyboard,digit#10 shown,"{""value"":8,""note"":""digit#10 shown"",""pd_used"":1}",1,0.004166,240.055808,1
Sergio_G01_CNS-LLF5HT7Y0,S01,OFFmed_OFFstim,20260202_185633,2026-02-02 18:56:44.870605,1,0,reading,PROBE_COUNT_OK_10,71,2026-02-02 18:57:36.898454,51.526121,0.504740,31.924035,slot#10,NaN,,,keyboard,probe_digit#10,"{""value"":""slot#10"",""entered"":null,""rt"":31.924035300005926,""note"":""probe_digit#10""}",1,0.004166,240.055808,1
Sergio_G01_CNS-LLF5HT7Y0,S01,OFFmed_OFFstim,20260202_185633,2026-02-02 18:56:44.870605,1,0,reading,DIGIT_READ10_OFF,125,2026-02-02 18:57:36.902094,52.030861,0.000000,,8,,,,keyboard,digit#10 off,"{""value"":8,""note"":""digit#10 off"",""pd_used"":0}",1,0.004166,240.055808,1
Sergio_G01_CNS-LLF5HT7Y0,S01,OFFmed_OFFstim,20260202_185633,2026-02-02 18:56:44.870605,1,0,reading,POSTREAD_FIX10_ON,210,2026-02-02 18:57:36.903680,52.030861,3.057135,,,,,,keyboard,after digit#10,"{""note"":""after digit#10""}",1,0.004166,240.055808,1
Sergio_G01_CNS-LLF5HT7Y0,S01,OFFmed_OFFstim,20260202_185633,2026-02-02 18:56:44.870605,1,0,reading,POSTREAD_FIX10_OFF,225,2026-02-02 18:57:39.960332,55.087996,0.009987,,,,,,keyboard,after digit#10,"{""note"":""after digit#10"",""pd_used"":0}",1,0.004166,240.055808,1
Sergio_G01_CNS-LLF5HT7Y0,S01,OFFmed_OFFstim,20260202_185633,2026-02-02 18:56:44.870605,1,0,reading,DIGIT_READ11_ON,111,2026-02-02 18:57:39.969710,55.097983,0.781780,,5,,,,keyboard,digit#11 shown,"{""value"":5,""note"":""digit#11 shown"",""pd_used"":1}",1,0.004166,240.055808,1
Sergio_G01_CNS-LLF5HT7Y0,S01,OFFmed_OFFstim,20260202_185633,2026-02-02 18:56:44.870605,1,0,reading,PROBE_COUNT_OK_11,71,2026-02-02 18:57:41.358384,55.879763,0.611221,36.277677,slot#11,NaN,,,keyboard,probe_digit#11,"{""value"":""slot#11"",""entered"":null,""rt"":36.277676900004735,""note"":""probe_digit#11""}",1,0.004166,240.055808,1
Sergio_G01_CNS-LLF5HT7Y0,S01,OFFmed_OFFstim,20260202_185633,2026-02-02 18:56:44.870605,1,0,reading,DIGIT_READ11_OFF,126,2026-02-02 18:57:41.362195,56.490984,0.000000,,5,,,,keyboard,digit#11 off,"{""value"":5,""note"":""digit#11 off"",""pd_used"":0}",1,0.004166,240.055808,1
Sergio_G01_CNS-LLF5HT7Y0,S01,OFFmed_OFFstim,20260202_185633,2026-02-02 18:56:44.870605,1,0,reading,POSTREAD_FIX11_ON,211,2026-02-02 18:57:41.363628,56.490984,3.372691,,,,,,keyboard,after digit#11,"{""note"":""after digit#11""}",1,0.004166,240.055808,1
Sergio_G01_CNS-LLF5HT7Y0,S01,OFFmed_OFFstim,20260202_185633,2026-02-02 18:56:44.870605,1,0,reading,POSTREAD_FIX11_OFF,226,2026-02-02 18:57:44.735429,59.863675,0.012241,,,,,,keyboard,after digit#11,"{""note"":""after digit#11"",""pd_used"":0}",1,0.004166,240.055808,1
Sergio_G01_CNS-LLF5HT7Y0,S01,OFFmed_OFFstim,20260202_185633,2026-02-02 18:56:44.870605,1,0,reading,DIGIT_READ12_ON,112,2026-02-02 18:57:44.747831,59.875916,0.576787,,5,,,,keyboard,digit#12 shown,"{""value"":5,""note"":""digit#12 shown"",""pd_used"":1}",1,0.004166,240.055808,1
Sergio_G01_CNS-LLF5HT7Y0,S01,OFFmed_OFFstim,20260202_185633,2026-02-02 18:56:44.870605,1,0,reading,PROBE_COUNT_OK_12,71,2026-02-02 18:57:45.920987,60.452703,0.601039,40.850617,slot#12,NaN,,,keyboard,probe_digit#12,"{""value"":""slot#12"",""entered"":null,""rt"":40.850616900017485,""note"":""probe_digit#12""}",1,0.004166,240.055808,1
Sergio_G01_CNS-LLF5HT7Y0,S01,OFFmed_OFFstim,20260202_185633,2026-02-02 18:56:44.870605,1,0,reading,DIGIT_READ12_OFF,127,2026-02-02 18:57:45.925159,61.053742,0.000000,,5,,,,keyboard,digit#12 off,"{""value"":5,""note"":""digit#12 off"",""pd_used"":0}",1,0.004166,240.055808,1
Sergio_G01_CNS-LLF5HT7Y0,S01,OFFmed_OFFstim,20260202_185633,2026-02-02 18:56:44.870605,1,0,reading,POSTREAD_FIX12_ON,212,2026-02-02 18:57:45.927193,61.053742,3.506309,,,,,,keyboard,after digit#12,"{""note"":""after digit#12""}",1,0.004166,240.055808,1
Sergio_G01_CNS-LLF5HT7Y0,S01,OFFmed_OFFstim,20260202_185633,2026-02-02 18:56:44.870605,1,0,reading,POSTREAD_FIX12_OFF,227,2026-02-02 18:57:49.432349,64.560050,0.012018,,,,,,keyboard,after digit#12,"{""note"":""after digit#12"",""pd_used"":0}",1,0.004166,240.055808,1
Sergio_G01_CNS-LLF5HT7Y0,S01,OFFmed_OFFstim,20260202_185633,2026-02-02 18:56:44.870605,1,0,reading,DIGIT_READ13_ON,113,2026-02-02 18:57:49.443857,64.572068,0.601051,,8,,,,keyboard,digit#13 shown,"{""value"":8,""note"":""digit#13 shown"",""pd_used"":1}",1,0.004166,240.055808,1
Sergio_G01_CNS-LLF5HT7Y0,S01,OFFmed_OFFstim,20260202_185633,2026-02-02 18:56:44.870605,1,0,reading,PROBE_COUNT_OK_13,71,2026-02-02 18:57:50.598230,65.173119,0.557895,45.571034,slot#13,NaN,,,keyboard,probe_digit#13,"{""value"":""slot#13"",""entered"":null,""rt"":45.571033600019291,""note"":""probe_digit#13""}",1,0.004166,240.055808,1
Sergio_G01_CNS-LLF5HT7Y0,S01,OFFmed_OFFstim,20260202_185633,2026-02-02 18:56:44.870605,1,0,reading,DIGIT_READ13_OFF,128,2026-02-02 18:57:50.602447,65.731014,0.000000,,8,,,,keyboard,digit#13 off,"{""value"":8,""note"":""digit#13 off"",""pd_used"":0}",1,0.004166,240.055808,1
Sergio_G01_CNS-LLF5HT7Y0,S01,OFFmed_OFFstim,20260202_185633,2026-02-02 18:56:44.870605,1,0,reading,POSTREAD_FIX13_ON,213,2026-02-02 18:57:50.603967,65.731014,3.277244,,,,,,keyboard,after digit#13,"{""note"":""after digit#13""}",1,0.004166,240.055808,1
Sergio_G01_CNS-LLF5HT7Y0,S01,OFFmed_OFFstim,20260202_185633,2026-02-02 18:56:44.870605,1,0,reading,POSTREAD_FIX13_OFF,228,2026-02-02 18:57:53.880214,69.008258,0.009945,,,,,,keyboard,after digit#13,"{""note"":""after digit#13"",""pd_used"":0}",1,0.004166,240.055808,1
Sergio_G01_CNS-LLF5HT7Y0,S01,OFFmed_OFFstim,20260202_185633,2026-02-02 18:56:44.870605,1,0,reading,DIGIT_READ14_ON,114,2026-02-02 18:57:53.890021,69.018204,0.770787,,5,,,,keyboard,digit#14 shown,"{""value"":5,""note"":""digit#14 shown"",""pd_used"":1}",1,0.004166,240.055808,1
Sergio_G01_CNS-LLF5HT7Y0,S01,OFFmed_OFFstim,20260202_185633,2026-02-02 18:56:44.870605,1,0,reading,PROBE_COUNT_OK_14,71,2026-02-02 18:57:55.238386,69.788991,0.581780,50.186905,slot#14,NaN,,,keyboard,probe_digit#14,"{""value"":""slot#14"",""entered"":null,""rt"":50.18690540001262,""note"":""probe_digit#14""}",1,0.004166,240.055808,1
Sergio_G01_CNS-LLF5HT7Y0,S01,OFFmed_OFFstim,20260202_185633,2026-02-02 18:56:44.870605,1,0,reading,DIGIT_READ14_OFF,129,2026-02-02 18:57:55.241944,70.370771,0.000000,,5,,,,keyboard,digit#14 off,"{""value"":5,""note"":""digit#14 off"",""pd_used"":0}",1,0.004166,240.055808,1
Sergio_G01_CNS-LLF5HT7Y0,S01,OFFmed_OFFstim,20260202_185633,2026-02-02 18:56:44.870605,1,0,reading,POSTREAD_FIX14_ON,214,2026-02-02 18:57:55.243400,70.370771,3.206907,,,,,,keyboard,after digit#14,"{""note"":""after digit#14""}",1,0.004166,240.055808,1
Sergio_G01_CNS-LLF5HT7Y0,S01,OFFmed_OFFstim,20260202_185633,2026-02-02 18:56:44.870605,1,0,reading,POSTREAD_FIX14_OFF,229,2026-02-02 18:57:58.449473,73.577678,0.012279,,,,,,keyboard,after digit#14,"{""note"":""after digit#14"",""pd_used"":0}",1,0.004166,240.055808,1
Sergio_G01_CNS-LLF5HT7Y0,S01,OFFmed_OFFstim,20260202_185633,2026-02-02 18:56:44.870605,1,0,reading,DIGIT_READ15_ON,115,2026-02-02 18:57:58.461987,73.589957,0.664802,,4,,,,keyboard,digit#15 shown,"{""value"":4,""note"":""digit#15 shown"",""pd_used"":1}",1,0.004166,240.055808,1
Sergio_G01_CNS-LLF5HT7Y0,S01,OFFmed_OFFstim,20260202_185633,2026-02-02 18:56:44.870605,1,0,reading,PROBE_COUNT_OK_15,71,2026-02-02 18:57:59.750143,74.254759,0.628027,54.652674,slot#15,NaN,,,keyboard,probe_digit#15,"{""value"":""slot#15"",""entered"":null,""rt"":54.652673600008711,""note"":""probe_digit#15""}",1,0.004166,240.055808,1
Sergio_G01_CNS-LLF5HT7Y0,S01,OFFmed_OFFstim,20260202_185633,2026-02-02 18:56:44.870605,1,0,reading,DIGIT_READ15_OFF,130,2026-02-02 18:57:59.754250,74.882786,0.000000,,4,,,,keyboard,digit#15 off,"{""value"":4,""note"":""digit#15 off"",""pd_used"":0}",1,0.004166,240.055808,1
Sergio_G01_CNS-LLF5HT7Y0,S01,OFFmed_OFFstim,20260202_185633,2026-02-02 18:56:44.870605,1,0,reading,POSTREAD_FIX15_ON,215,2026-02-02 18:57:59.755959,74.882786,3.314784,,,,,,keyboard,after digit#15,"{""note"":""after digit#15""}",1,0.004166,240.055808,1
Sergio_G01_CNS-LLF5HT7Y0,S01,OFFmed_OFFstim,20260202_185633,2026-02-02 18:56:44.870605,1,0,reading,POSTREAD_FIX15_OFF,230,2026-02-02 18:58:03.069480,78.197571,0.004413,,,,,,keyboard,after digit#15,"{""note"":""after digit#15"",""pd_used"":0}",1,0.004166,240.055808,1
Sergio_G01_CNS-LLF5HT7Y0,S01,OFFmed_OFFstim,20260202_185633,2026-02-02 18:56:44.870605,1,0,reading,READING_END,24,2026-02-02 18:58:03.073236,78.201984,0.008008,,,,,,keyboard,,{},1,0.004166,240.055808,1
Sergio_G01_CNS-LLF5HT7Y0,S01,OFFmed_OFFstim,20260202_185633,2026-02-02 18:56:44.870605,1,0,reading,START_PAGE_ON,4,2026-02-02 18:58:03.081695,78.209992,0.010056,,,,,,keyboard,,"{""pd_used"":0}",1,0.004166,240.055808,1
Sergio_G01_CNS-LLF5HT7Y0,S01,OFFmed_OFFstim,20260202_185633,2026-02-02 18:56:44.870605,1,0,reading,START_PAGE_ON,4,2026-02-02 18:58:03.081695,78.209992,1.207888,,,,,,keyboard,,"{""pd_used"":0}",1,0.004166,240.055808,1
Sergio_G01_CNS-LLF5HT7Y0,S01,OFFmed_OFFstim,20260202_185633,2026-02-02 18:56:44.870605,1,0,reading,START_PAGE_ON,4,2026-02-02 18:58:03.081695,78.209992,1.512903,,,,,,keyboard,,"{""pd_used"":0}",1,0.004166,240.055808,1
Sergio_G01_CNS-LLF5HT7Y0,S01,OFFmed_OFFstim,20260202_185633,2026-02-02 18:56:44.870605,1,1,reading,TRIAL_CHANGE,22,2026-02-02 18:58:04.594675,79.722895,0.002586,,,,,,keyboard,trial transition,"{""note"":""trial transition""}",1,0.004166,240.055808,1
Sergio_G01_CNS-LLF5HT7Y0,S01,OFFmed_OFFstim,20260202_185633,2026-02-02 18:56:44.870605,1,1,reading,TRIAL_START,20,2026-02-02 18:58:04.597111,79.725481,0.004498,,,,,,keyboard,,{},1,0.004166,240.055808,1
Sergio_G01_CNS-LLF5HT7Y0,S01,OFFmed_OFFstim,20260202_185633,2026-02-02 18:56:44.870605,1,1,fix1,FIX1_ON,30,2026-02-02 18:58:04.601152,79.729979,3.338879,,,,,,keyboard,,"{""pd_used"":0}",1,0.004166,240.055808,1
Sergio_G01_CNS-LLF5HT7Y0,S01,OFFmed_OFFstim,20260202_185633,2026-02-02 18:56:44.870605,1,1,fix1,FIX1_OFF,31,2026-02-02 18:58:07.940762,83.068858,0.004740,,,,,,keyboard,,"{""pd_used"":0}",1,0.004166,240.055808,1
Sergio_G01_CNS-LLF5HT7Y0,S01,OFFmed_OFFstim,20260202_185633,2026-02-02 18:56:44.870605,1,1,digit,DIGIT1_ON,141,2026-02-02 18:58:07.944303,83.073598,0.502710,,8,,,,keyboard,digit#1 shown,"{""value"":8,""note"":""digit#1 shown"",""pd_used"":1}",1,0.004166,240.055808,1
Sergio_G01_CNS-LLF5HT7Y0,S01,OFFmed_OFFstim,20260202_185633,2026-02-02 18:56:44.870605,1,1,digit,DIGIT1_OFF,146,2026-02-02 18:58:08.447250,83.576308,0.000000,,8,,,,keyboard,digit#1 off,"{""value"":8,""note"":""digit#1 off"",""pd_used"":0}",1,0.004166,240.055808,1
Sergio_G01_CNS-LLF5HT7Y0,S01,OFFmed_OFFstim,20260202_185633,2026-02-02 18:56:44.870605,1,1,digit,POSTDIG_FIX1_ON,151,2026-02-02 18:58:08.448033,83.576308,1.847298,,,,,,keyboard,after digit#1,"{""note"":""after digit#1""}",1,0.004166,240.055808,1
Sergio_G01_CNS-LLF5HT7Y0,S01,OFFmed_OFFstim,20260202_185633,2026-02-02 18:56:44.870605,1,1,digit,POSTDIG_FIX1_OFF,156,2026-02-02 18:58:10.295665,85.423606,0.005041,,,,,,keyboard,after digit#1,"{""note"":""after digit#1"",""pd_used"":0}",1,0.004166,240.055808,1
Sergio_G01_CNS-LLF5HT7Y0,S01,OFFmed_OFFstim,20260202_185633,2026-02-02 18:56:44.870605,1,1,digit,DIGIT2_ON,142,2026-02-02 18:58:10.300136,85.428646,0.504935,,9,,,,keyboard,digit#2 shown,"{""value"":9,""note"":""digit#2 shown"",""pd_used"":1}",1,0.004166,240.055808,1
Sergio_G01_CNS-LLF5HT7Y0,S01,OFFmed_OFFstim,20260202_185633,2026-02-02 18:56:44.870605,1,1,digit,DIGIT2_OFF,147,2026-02-02 18:58:10.806094,85.933582,0.000000,,9,,,,keyboard,digit#2 off,"{""value"":9,""note"":""digit#2 off"",""pd_used"":0}",1,0.004166,240.055808,1
Sergio_G01_CNS-LLF5HT7Y0,S01,OFFmed_OFFstim,20260202_185633,2026-02-02 18:56:44.870605,1,1,digit,POSTDIG_FIX2_ON,152,2026-02-02 18:58:10.808376,85.933582,1.629436,,,,,,keyboard,after digit#2,"{""note"":""after digit#2""}",1,0.004166,240.055808,1
Sergio_G01_CNS-LLF5HT7Y0,S01,OFFmed_OFFstim,20260202_185633,2026-02-02 18:56:44.870605,1,1,digit,POSTDIG_FIX2_OFF,157,2026-02-02 18:58:12.435067,87.563017,0.004736,,,,,,keyboard,after digit#2,"{""note"":""after digit#2"",""pd_used"":0}",1,0.004166,240.055808,1
Sergio_G01_CNS-LLF5HT7Y0,S01,OFFmed_OFFstim,20260202_185633,2026-02-02 18:56:44.870605,1,1,digit,DIGIT3_ON,143,2026-02-02 18:58:12.439087,87.567754,0.504381,,9,,,,keyboard,digit#3 shown,"{""value"":9,""note"":""digit#3 shown"",""pd_used"":1}",1,0.004166,240.055808,1
Sergio_G01_CNS-LLF5HT7Y0,S01,OFFmed_OFFstim,20260202_185633,2026-02-02 18:56:44.870605,1,1,digit,DIGIT3_OFF,148,2026-02-02 18:58:12.944148,88.072134,0.000000,,9,,,,keyboard,digit#3 off,"{""value"":9,""note"":""digit#3 off"",""pd_used"":0}",1,0.004166,240.055808,1
Sergio_G01_CNS-LLF5HT7Y0,S01,OFFmed_OFFstim,20260202_185633,2026-02-02 18:56:44.870605,1,1,digit,POSTDIG_FIX3_ON,153,2026-02-02 18:58:12.946359,88.072134,1.975422,,,,,,keyboard,after digit#3,"{""note"":""after digit#3""}",1,0.004166,240.055808,1
Sergio_G01_CNS-LLF5HT7Y0,S01,OFFmed_OFFstim,20260202_185633,2026-02-02 18:56:44.870605,1,1,digit,POSTDIG_FIX3_OFF,158,2026-02-02 18:58:14.919625,90.047556,0.004892,,,,,,keyboard,after digit#3,"{""note"":""after digit#3"",""pd_used"":0}",1,0.004166,240.055808,1
Sergio_G01_CNS-LLF5HT7Y0,S01,OFFmed_OFFstim,20260202_185633,2026-02-02 18:56:44.870605,1,1,digit,DIGIT4_ON,144,2026-02-02 18:58:14.923842,90.052449,0.505724,,3,,,,keyboard,digit#4 shown,"{""value"":3,""note"":""digit#4 shown"",""pd_used"":1}",1,0.004166,240.055808,1
Sergio_G01_CNS-LLF5HT7Y0,S01,OFFmed_OFFstim,20260202_185633,2026-02-02 18:56:44.870605,1,1,digit,DIGIT4_OFF,149,2026-02-02 18:58:15.430128,90.558172,0.000000,,3,,,,keyboard,digit#4 off,"{""value"":3,""note"":""digit#4 off"",""pd_used"":0}",1,0.004166,240.055808,1
Sergio_G01_CNS-LLF5HT7Y0,S01,OFFmed_OFFstim,20260202_185633,2026-02-02 18:56:44.870605,1,1,digit,POSTDIG_FIX4_ON,154,2026-02-02 18:58:15.432126,90.558172,1.976780,,,,,,keyboard,after digit#4,"{""note"":""after digit#4""}",1,0.004166,240.055808,1
Sergio_G01_CNS-LLF5HT7Y0,S01,OFFmed_OFFstim,20260202_185633,2026-02-02 18:56:44.870605,1,1,digit,POSTDIG_FIX4_OFF,159,2026-02-02 18:58:17.406969,92.534952,0.004798,,,,,,keyboard,after digit#4,"{""note"":""after digit#4"",""pd_used"":0}",1,0.004166,240.055808,1
Sergio_G01_CNS-LLF5HT7Y0,S01,OFFmed_OFFstim,20260202_185633,2026-02-02 18:56:44.870605,1,1,digit,DIGIT5_ON,145,2026-02-02 18:58:17.410997,92.539751,0.506055,,1,,,,keyboard,digit#5 shown,"{""value"":1,""note"":""digit#5 shown"",""pd_used"":1}",1,0.004166,240.055808,1
Sergio_G01_CNS-LLF5HT7Y0,S01,OFFmed_OFFstim,20260202_185633,2026-02-02 18:56:44.870605,1,1,digit,DIGIT5_OFF,150,2026-02-02 18:58:17.917840,93.045806,0.000000,,1,,,,keyboard,digit#5 off,"{""value"":1,""note"":""digit#5 off"",""pd_used"":0}",1,0.004166,240.055808,1
Sergio_G01_CNS-LLF5HT7Y0,S01,OFFmed_OFFstim,20260202_185633,2026-02-02 18:56:44.870605,1,1,digit,POSTDIG_FIX5_ON,155,2026-02-02 18:58:17.919929,93.045806,3.164806,,,,,,keyboard,after digit#5,"{""note"":""after digit#5""}",1,0.004166,240.055808,1
Sergio_G01_CNS-LLF5HT7Y0,S01,OFFmed_OFFstim,20260202_185633,2026-02-02 18:56:44.870605,1,1,digit,POSTDIG_FIX5_OFF,160,2026-02-02 18:58:21.082665,96.210612,0.006479,,,,,,keyboard,after digit#5,"{""note"":""after digit#5"",""pd_used"":0}",1,0.004166,240.055808,1
Sergio_G01_CNS-LLF5HT7Y0,S01,OFFmed_OFFstim,20260202_185633,2026-02-02 18:56:44.870605,1,1,distractor,DISTRACTOR_ON,50,2026-02-02 18:58:21.088456,96.217090,1.359849,,9+9=18,,,,keyboard,,"{""value"":""9+9=18"",""isCorrectTruth"":true,""trueSum"":18,""pd_used"":1}",1,0.004166,240.055808,1
Sergio_G01_CNS-LLF5HT7Y0,S01,OFFmed_OFFstim,20260202_185633,2026-02-02 18:56:44.870605,1,1,distractor,DISTRACTOR_ANS,51,2026-02-02 18:58:22.939694,97.576939,0.000000,1.359849,9+9=18,F,0,,keyboard,key= (False),"{""value"":""9+9=18"",""entered"":""F"",""rt"":1.3598490000003949,""correct"":0,""note"":""key= (False)"",""truth"":true,""trueSum"":18,""shownSum"":18,""a"":9,""b"":9}",1,0.004166,240.055808,1
Sergio_G01_CNS-LLF5HT7Y0,S01,OFFmed_OFFstim,20260202_185633,2026-02-02 18:56:44.870605,1,1,distractor,ANS_WRONG,200,2026-02-02 18:58:22.941293,97.576939,0.496484,,,,,,keyboard,,{},1,0.004166,240.055808,1
Sergio_G01_CNS-LLF5HT7Y0,S01,OFFmed_OFFstim,20260202_185633,2026-02-02 18:56:44.870605,1,1,distractor,DISTRACTOR_OFF,52,2026-02-02 18:58:22.944256,98.073424,0.000000,,,,,,keyboard,,"{""pd_used"":0}",1,0.004166,240.055808,1
Sergio_G01_CNS-LLF5HT7Y0,S01,OFFmed_OFFstim,20260202_185633,2026-02-02 18:56:44.870605,1,1,distractor,FIX2_ON,60,2026-02-02 18:58:22.945156,98.073424,3.501196,,,,,,keyboard,immediate after response,"{""note"":""immediate after response""}",1,0.004166,240.055808,1
Sergio_G01_CNS-LLF5HT7Y0,S01,OFFmed_OFFstim,20260202_185633,2026-02-02 18:56:44.870605,1,1,fix2,FIX2_OFF,61,2026-02-02 18:58:26.446716,101.574619,0.008908,,,,,,keyboard,,"{""pd_used"":0}",1,0.004166,240.055808,1
Sergio_G01_CNS-LLF5HT7Y0,S01,OFFmed_OFFstim,20260202_185633,2026-02-02 18:56:44.870605,1,1,probe,DIGIT_RECALL_LINE_1,161,2026-02-02 18:58:26.455202,101.583527,0.525038,,1,,,,keyboard,first recall question,"{""value"":1,""note"":""first recall question"",""pd_used"":1}",1,0.004166,240.055808,1
Sergio_G01_CNS-LLF5HT7Y0,S01,OFFmed_OFFstim,20260202_185633,2026-02-02 18:56:44.870605,1,1,probe,PROBE_DIGIT_OK_1,71,2026-02-02 18:58:27.487854,102.108565,0.511904,0.530892,slot#1,NaN,,,keyboard,probe_digit#1,"{""value"":""slot#1"",""entered"":null,""rt"":0.53089249998447485,""note"":""probe_digit#1""}",1,0.004166,240.055808,1
Sergio_G01_CNS-LLF5HT7Y0,S01,OFFmed_OFFstim,20260202_185633,2026-02-02 18:56:44.870605,1,1,probe,DIGIT1_OFF,146,2026-02-02 18:58:27.491703,102.620469,0.000000,,1,,,,keyboard,digit#1 off,"{""value"":1,""note"":""digit#1 off"",""pd_used"":0}",1,0.004166,240.055808,1
Sergio_G01_CNS-LLF5HT7Y0,S01,OFFmed_OFFstim,20260202_185633,2026-02-02 18:56:44.870605,1,1,probe,POSTDIG_FIX1_ON,151,2026-02-02 18:58:27.493269,102.620469,1.837041,,,,,,keyboard,after digit#1,"{""note"":""after digit#1""}",1,0.004166,240.055808,1
Sergio_G01_CNS-LLF5HT7Y0,S01,OFFmed_OFFstim,20260202_185633,2026-02-02 18:56:44.870605,1,1,probe,POSTDIG_FIX1_OFF,156,2026-02-02 18:58:29.329444,104.457510,0.010464,,,,,,keyboard,after digit#1,"{""note"":""after digit#1"",""pd_used"":0}",1,0.004166,240.055808,1
Sergio_G01_CNS-LLF5HT7Y0,S01,OFFmed_OFFstim,20260202_185633,2026-02-02 18:56:44.870605,1,1,probe,DIGIT_RECALL_LINE_2,162,2026-02-02 18:58:29.339659,104.467974,0.249789,,2,,,,keyboard,next recall question,"{""value"":2,""note"":""next recall question"",""pd_used"":1}",1,0.004166,240.055808,1
Sergio_G01_CNS-LLF5HT7Y0,S01,OFFmed_OFFstim,20260202_185633,2026-02-02 18:56:44.870605,1,1,probe,PROBE_DIGIT_OK_2,71,2026-02-02 18:58:29.989362,104.717764,0.404178,3.140091,slot#2,NaN,,,keyboard,probe_digit#2,"{""value"":""slot#2"",""entered"":null,""rt"":3.140090999979293,""note"":""probe_digit#2""}",1,0.004166,240.055808,1
Sergio_G01_CNS-LLF5HT7Y0,S01,OFFmed_OFFstim,20260202_185633,2026-02-02 18:56:44.870605,1,1,probe,DIGIT2_OFF,147,2026-02-02 18:58:29.993348,105.121942,0.000000,,1,,,,keyboard,digit#2 off,"{""value"":1,""note"":""digit#2 off"",""pd_used"":0}",1,0.004166,240.055808,1
Sergio_G01_CNS-LLF5HT7Y0,S01,OFFmed_OFFstim,20260202_185633,2026-02-02 18:56:44.870605,1,1,probe,POSTDIG_FIX2_ON,152,2026-02-02 18:58:29.994910,105.121942,1.590216,,,,,,keyboard,after digit#2,"{""note"":""after digit#2""}",1,0.004166,240.055808,1
Sergio_G01_CNS-LLF5HT7Y0,S01,OFFmed_OFFstim,20260202_185633,2026-02-02 18:56:44.870605,1,1,probe,POSTDIG_FIX2_OFF,157,2026-02-02 18:58:31.583788,106.712158,0.011832,,,,,,keyboard,after digit#2,"{""note"":""after digit#2"",""pd_used"":0}",1,0.004166,240.055808,1
Sergio_G01_CNS-LLF5HT7Y0,S01,OFFmed_OFFstim,20260202_185633,2026-02-02 18:56:44.870605,1,1,probe,DIGIT_RECALL_LINE_3,163,2026-02-02 18:58:31.596180,106.723990,0.454167,,3,,,,keyboard,next recall question,"{""value"":3,""note"":""next recall question"",""pd_used"":1}",1,0.004166,240.055808,1
Sergio_G01_CNS-LLF5HT7Y0,S01,OFFmed_OFFstim,20260202_185633,2026-02-02 18:56:44.870605,1,1,probe,PROBE_DIGIT_OK_3,71,2026-02-02 18:58:32.554649,107.178156,0.508446,5.600484,slot#3,NaN,,,keyboard,probe_digit#3,"{""value"":""slot#3"",""entered"":null,""rt"":5.6004835999920033,""note"":""probe_digit#3""}",1,0.004166,240.055808,1
Sergio_G01_CNS-LLF5HT7Y0,S01,OFFmed_OFFstim,20260202_185633,2026-02-02 18:56:44.870605,1,1,probe,DIGIT3_OFF,148,2026-02-02 18:58:32.557390,107.686603,0.000000,,1,,,,keyboard,digit#3 off,"{""value"":1,""note"":""digit#3 off"",""pd_used"":0}",1,0.004166,240.055808,1
Sergio_G01_CNS-LLF5HT7Y0,S01,OFFmed_OFFstim,20260202_185633,2026-02-02 18:56:44.870605,1,1,probe,POSTDIG_FIX3_ON,153,2026-02-02 18:58:32.558094,107.686603,1.590647,,,,,,keyboard,after digit#3,"{""note"":""after digit#3""}",1,0.004166,240.055808,1
Sergio_G01_CNS-LLF5HT7Y0,S01,OFFmed_OFFstim,20260202_185633,2026-02-02 18:56:44.870605,1,1,probe,POSTDIG_FIX3_OFF,158,2026-02-02 18:58:34.149096,109.277250,0.009970,,,,,,keyboard,after digit#3,"{""note"":""after digit#3"",""pd_used"":0}",1,0.004166,240.055808,1
Sergio_G01_CNS-LLF5HT7Y0,S01,OFFmed_OFFstim,20260202_185633,2026-02-02 18:56:44.870605,1,1,probe,DIGIT_RECALL_LINE_4,164,2026-02-02 18:58:34.158899,109.287220,0.493057,,4,,,,keyboard,next recall question,"{""value"":4,""note"":""next recall question"",""pd_used"":1}",1,0.004166,240.055808,1
Sergio_G01_CNS-LLF5HT7Y0,S01,OFFmed_OFFstim,20260202_185633,2026-02-02 18:56:44.870605,1,1,probe,PROBE_DIGIT_OK_4,71,2026-02-02 18:58:35.298925,109.780277,0.651165,8.202604,slot#4,NaN,,,keyboard,probe_digit#4,"{""value"":""slot#4"",""entered"":null,""rt"":8.2026042999932542,""note"":""probe_digit#4""}",1,0.004166,240.055808,1
Sergio_G01_CNS-LLF5HT7Y0,S01,OFFmed_OFFstim,20260202_185633,2026-02-02 18:56:44.870605,1,1,probe,DIGIT4_OFF,149,2026-02-02 18:58:35.302767,110.431442,0.000000,,1,,,,keyboard,digit#4 off,"{""value"":1,""note"":""digit#4 off"",""pd_used"":0}",1,0.004166,240.055808,1
Sergio_G01_CNS-LLF5HT7Y0,S01,OFFmed_OFFstim,20260202_185633,2026-02-02 18:56:44.870605,1,1,probe,POSTDIG_FIX4_ON,154,2026-02-02 18:58:35.304400,110.431442,1.599656,,,,,,keyboard,after digit#4,"{""note"":""after digit#4""}",1,0.004166,240.055808,1
Sergio_G01_CNS-LLF5HT7Y0,S01,OFFmed_OFFstim,20260202_185633,2026-02-02 18:56:44.870605,1,1,probe,POSTDIG_FIX4_OFF,159,2026-02-02 18:58:36.903062,112.031098,0.010078,,,,,,keyboard,after digit#4,"{""note"":""after digit#4"",""pd_used"":0}",1,0.004166,240.055808,1
Sergio_G01_CNS-LLF5HT7Y0,S01,OFFmed_OFFstim,20260202_185633,2026-02-02 18:56:44.870605,1,1,probe,DIGIT_RECALL_LINE_5,165,2026-02-02 18:58:36.912994,112.041176,0.444225,,5,,,,keyboard,next recall question,"{""value"":5,""note"":""next recall question"",""pd_used"":1}",1,0.004166,240.055808,1
Sergio_G01_CNS-LLF5HT7Y0,S01,OFFmed_OFFstim,20260202_185633,2026-02-02 18:56:44.870605,1,1,probe,PROBE_DIGIT_OK_5,71,2026-02-02 18:58:37.899377,112.485401,0.547550,10.907728,slot#5,NaN,,,keyboard,probe_digit#5,"{""value"":""slot#5"",""entered"":null,""rt"":10.907727999991039,""note"":""probe_digit#5""}",1,0.004166,240.055808,1
Sergio_G01_CNS-LLF5HT7Y0,S01,OFFmed_OFFstim,20260202_185633,2026-02-02 18:56:44.870605,1,1,probe,DIGIT5_OFF,150,2026-02-02 18:58:37.904270,113.032951,0.000000,,1,,,,keyboard,digit#5 off,"{""value"":1,""note"":""digit#5 off"",""pd_used"":0}",1,0.004166,240.055808,1
Sergio_G01_CNS-LLF5HT7Y0,S01,OFFmed_OFFstim,20260202_185633,2026-02-02 18:56:44.870605,1,1,probe,POSTDIG_FIX5_ON,155,2026-02-02 18:58:37.905680,113.032951,3.148226,,,,,,keyboard,after digit#5,"{""note"":""after digit#5""}",1,0.004166,240.055808,1
Sergio_G01_CNS-LLF5HT7Y0,S01,OFFmed_OFFstim,20260202_185633,2026-02-02 18:56:44.870605,1,1,probe,POSTDIG_FIX5_OFF,160,2026-02-02 18:58:41.053238,116.181177,0.004222,,,,,,keyboard,after digit#5,"{""note"":""after digit#5"",""pd_used"":0}",1,0.004166,240.055808,1
Sergio_G01_CNS-LLF5HT7Y0,S01,OFFmed_OFFstim,20260202_185633,2026-02-02 18:56:44.870605,1,1,probe,PROBE_DONE,73,2026-02-02 18:58:41.056936,116.185399,0.002159,,,,,,keyboard,probe complete,"{""value"":"""",""note"":""probe complete""}",1,0.004166,240.055808,1
Sergio_G01_CNS-LLF5HT7Y0,S01,OFFmed_OFFstim,20260202_185633,2026-02-02 18:56:44.870605,1,1,probe,TRIAL_END,21,2026-02-02 18:58:41.058774,116.187559,0.002109,,,,,,keyboard,,{},1,0.004166,240.055808,1
Sergio_G01_CNS-LLF5HT7Y0,S01,OFFmed_OFFstim,20260202_185633,2026-02-02 18:56:44.870605,1,1,probe,BLOCK_END,11,2026-02-02 18:58:41.061280,116.189668,0.175000,,,,,,keyboard,,{},1,0.004166,240.055808,1
Sergio_G01_CNS-LLF5HT7Y0,S01,OFFmed_OFFstim,20260202_185633,2026-02-02 18:56:44.870605,1,1,probe,SESSION_END,3,2026-02-02 18:58:41.235687,116.364667,NaN,,,,,,keyboard,,{},1,0.004166,240.055808,1
