file_version,subject,condition,session,task_start_time,block,trial,phase,event_name,event_code,wall_clock,t_rel_sec,duration_to_next,rt,value_shown,entered_value,correct,key_name,device,note,json,screen_index,ifi,refresh_hz,pd_used
Alavie_G01_CNS-LLF5HT7Y0,S01,OFFmed_OFFstim,20251121_170424,2025-11-21 17:04:34.122799,NaN,NaN,,START_PAGE_ON,4,2025-11-21 17:04:35.005762,0.882252,0.003413,,,,,,keyboard,,"{""pd_used"":0}",2,0.008333,120.000000,1
Alavie_G01_CNS-LLF5HT7Y0,S01,OFFmed_OFFstim,20251121_170424,2025-11-21 17:04:34.122799,NaN,NaN,,START_PAGE_ON,4,2025-11-21 17:04:35.005762,0.882252,2.078312,,,,,,keyboard,,"{""pd_used"":0}",2,0.008333,120.000000,1
Alavie_G01_CNS-LLF5HT7Y0,S01,OFFmed_OFFstim,20251121_170424,2025-11-21 17:04:34.122799,NaN,NaN,,START_PAGE_ON,4,2025-11-21 17:04:35.005762,0.882252,2.390475,,,,,,keyboard,,"{""pd_used"":0}",2,0.008333,120.000000,1
Alavie_G01_CNS-LLF5HT7Y0,S01,OFFmed_OFFstim,20251121_170424,2025-11-21 17:04:34.122799,NaN,NaN,,SESSION_START,1,2025-11-21 17:04:37.396965,3.272727,0.003693,,,,,,keyboard,,{},2,0.008333,120.000000,1
Alavie_G01_CNS-LLF5HT7Y0,S01,OFFmed_OFFstim,20251121_170424,2025-11-21 17:04:34.122799,1,NaN,,BLOCK_START,10,2025-11-21 17:04:37.400097,3.276420,0.002351,,,,,,keyboard,,{},2,0.008333,120.000000,1
Alavie_G01_CNS-LLF5HT7Y0,S01,OFFmed_OFFstim,20251121_170424,2025-11-21 17:04:34.122799,1,1,,TRIAL_CHANGE,22,2025-11-21 17:04:37.402240,3.278771,0.001899,,,,,,keyboard,trial transition,"{""note"":""trial transition""}",2,0.008333,120.000000,1
Alavie_G01_CNS-LLF5HT7Y0,S01,OFFmed_OFFstim,20251121_170424,2025-11-21 17:04:34.122799,1,1,,TRIAL_START,20,2025-11-21 17:04:37.403880,3.280670,0.004908,,,,,,keyboard,,{},2,0.008333,120.000000,1
Alavie_G01_CNS-LLF5HT7Y0,S01,OFFmed_OFFstim,20251121_170424,2025-11-21 17:04:34.122799,1,1,fix1,FIX1_ON,30,2025-11-21 17:04:37.408780,3.285578,3.420252,,,,,,keyboard,,"{""pd_used"":0}",2,0.008333,120.000000,1
Alavie_G01_CNS-LLF5HT7Y0,S01,OFFmed_OFFstim,20251121_170424,2025-11-21 17:04:34.122799,1,1,fix1,FIX1_OFF,31,2025-11-21 17:04:40.828873,6.705830,0.014756,,,,,,keyboard,,"{""pd_used"":0}",2,0.008333,120.000000,1
Alavie_G01_CNS-LLF5HT7Y0,S01,OFFmed_OFFstim,20251121_170424,2025-11-21 17:04:34.122799,1,1,digit,DIGIT1_ON,141,2025-11-21 17:04:40.843902,6.720587,0.511261,,3,,,,keyboard,digit#1 shown,"{""value"":3,""note"":""digit#1 shown"",""pd_used"":1}",2,0.008333,120.000000,1
Alavie_G01_CNS-LLF5HT7Y0,S01,OFFmed_OFFstim,20251121_170424,2025-11-21 17:04:34.122799,1,1,digit,DIGIT1_OFF,146,2025-11-21 17:04:41.354972,7.231848,0.000000,,3,,,,keyboard,digit#1 off,"{""value"":3,""note"":""digit#1 off"",""pd_used"":0}",2,0.008333,120.000000,1
Alavie_G01_CNS-LLF5HT7Y0,S01,OFFmed_OFFstim,20251121_170424,2025-11-21 17:04:34.122799,1,1,digit,POSTDIG_FIX1_ON,151,2025-11-21 17:04:41.356445,7.231848,1.523426,,,,,,keyboard,after digit#1,"{""note"":""after digit#1""}",2,0.008333,120.000000,1
Alavie_G01_CNS-LLF5HT7Y0,S01,OFFmed_OFFstim,20251121_170424,2025-11-21 17:04:34.122799,1,1,digit,POSTDIG_FIX1_OFF,156,2025-11-21 17:04:42.879020,8.755274,0.010364,,,,,,keyboard,after digit#1,"{""note"":""after digit#1"",""pd_used"":0}",2,0.008333,120.000000,1
Alavie_G01_CNS-LLF5HT7Y0,S01,OFFmed_OFFstim,20251121_170424,2025-11-21 17:04:34.122799,1,1,digit,DIGIT2_ON,142,2025-11-21 17:04:42.888881,8.765639,0.511133,,9,,,,keyboard,digit#2 shown,"{""value"":9,""note"":""digit#2 shown"",""pd_used"":1}",2,0.008333,120.000000,1
Alavie_G01_CNS-LLF5HT7Y0,S01,OFFmed_OFFstim,20251121_170424,2025-11-21 17:04:34.122799,1,1,digit,DIGIT2_OFF,147,2025-11-21 17:04:43.400399,9.276772,0.000000,,9,,,,keyboard,digit#2 off,"{""value"":9,""note"":""digit#2 off"",""pd_used"":0}",2,0.008333,120.000000,1
Alavie_G01_CNS-LLF5HT7Y0,S01,OFFmed_OFFstim,20251121_170424,2025-11-21 17:04:34.122799,1,1,digit,POSTDIG_FIX2_ON,152,2025-11-21 17:04:43.402049,9.276772,1.956819,,,,,,keyboard,after digit#2,"{""note"":""after digit#2""}",2,0.008333,120.000000,1
Alavie_G01_CNS-LLF5HT7Y0,S01,OFFmed_OFFstim,20251121_170424,2025-11-21 17:04:34.122799,1,1,digit,POSTDIG_FIX2_OFF,157,2025-11-21 17:04:45.357267,11.233591,0.012229,,,,,,keyboard,after digit#2,"{""note"":""after digit#2"",""pd_used"":0}",2,0.008333,120.000000,1
Alavie_G01_CNS-LLF5HT7Y0,S01,OFFmed_OFFstim,20251121_170424,2025-11-21 17:04:34.122799,1,1,digit,DIGIT3_ON,143,2025-11-21 17:04:45.369215,11.245820,0.510840,,2,,,,keyboard,digit#3 shown,"{""value"":2,""note"":""digit#3 shown"",""pd_used"":1}",2,0.008333,120.000000,1
Alavie_G01_CNS-LLF5HT7Y0,S01,OFFmed_OFFstim,20251121_170424,2025-11-21 17:04:34.122799,1,1,digit,DIGIT3_OFF,148,2025-11-21 17:04:45.880317,11.756660,0.000000,,2,,,,keyboard,digit#3 off,"{""value"":2,""note"":""digit#3 off"",""pd_used"":0}",2,0.008333,120.000000,1
Alavie_G01_CNS-LLF5HT7Y0,S01,OFFmed_OFFstim,20251121_170424,2025-11-21 17:04:34.122799,1,1,digit,POSTDIG_FIX3_ON,153,2025-11-21 17:04:45.882002,11.756660,1.978186,,,,,,keyboard,after digit#3,"{""note"":""after digit#3""}",2,0.008333,120.000000,1
Alavie_G01_CNS-LLF5HT7Y0,S01,OFFmed_OFFstim,20251121_170424,2025-11-21 17:04:34.122799,1,1,digit,POSTDIG_FIX3_OFF,158,2025-11-21 17:04:47.858534,13.734846,0.010867,,,,,,keyboard,after digit#3,"{""note"":""after digit#3"",""pd_used"":0}",2,0.008333,120.000000,1
Alavie_G01_CNS-LLF5HT7Y0,S01,OFFmed_OFFstim,20251121_170424,2025-11-21 17:04:34.122799,1,1,digit,DIGIT4_ON,144,2025-11-21 17:04:47.869004,13.745712,0.510825,,1,,,,keyboard,digit#4 shown,"{""value"":1,""note"":""digit#4 shown"",""pd_used"":1}",2,0.008333,120.000000,1
Alavie_G01_CNS-LLF5HT7Y0,S01,OFFmed_OFFstim,20251121_170424,2025-11-21 17:04:34.122799,1,1,digit,DIGIT4_OFF,149,2025-11-21 17:04:48.380145,14.256537,0.000000,,1,,,,keyboard,digit#4 off,"{""value"":1,""note"":""digit#4 off"",""pd_used"":0}",2,0.008333,120.000000,1
Alavie_G01_CNS-LLF5HT7Y0,S01,OFFmed_OFFstim,20251121_170424,2025-11-21 17:04:34.122799,1,1,digit,POSTDIG_FIX4_ON,154,2025-11-21 17:04:48.381762,14.256537,1.575178,,,,,,keyboard,after digit#4,"{""note"":""after digit#4""}",2,0.008333,120.000000,1
Alavie_G01_CNS-LLF5HT7Y0,S01,OFFmed_OFFstim,20251121_170424,2025-11-21 17:04:34.122799,1,1,digit,POSTDIG_FIX4_OFF,159,2025-11-21 17:04:49.954710,15.831715,0.009097,,,,,,keyboard,after digit#4,"{""note"":""after digit#4"",""pd_used"":0}",2,0.008333,120.000000,1
Alavie_G01_CNS-LLF5HT7Y0,S01,OFFmed_OFFstim,20251121_170424,2025-11-21 17:04:34.122799,1,1,digit,DIGIT5_ON,145,2025-11-21 17:04:49.963582,15.840812,0.509809,,3,,,,keyboard,digit#5 shown,"{""value"":3,""note"":""digit#5 shown"",""pd_used"":1}",2,0.008333,120.000000,1
Alavie_G01_CNS-LLF5HT7Y0,S01,OFFmed_OFFstim,20251121_170424,2025-11-21 17:04:34.122799,1,1,digit,DIGIT5_OFF,150,2025-11-21 17:04:50.473648,16.350622,0.000000,,3,,,,keyboard,digit#5 off,"{""value"":3,""note"":""digit#5 off"",""pd_used"":0}",2,0.008333,120.000000,1
Alavie_G01_CNS-LLF5HT7Y0,S01,OFFmed_OFFstim,20251121_170424,2025-11-21 17:04:34.122799,1,1,digit,POSTDIG_FIX5_ON,155,2025-11-21 17:04:50.474387,16.350622,3.025356,,,,,,keyboard,after digit#5,"{""note"":""after digit#5""}",2,0.008333,120.000000,1
Alavie_G01_CNS-LLF5HT7Y0,S01,OFFmed_OFFstim,20251121_170424,2025-11-21 17:04:34.122799,1,1,digit,POSTDIG_FIX5_OFF,160,2025-11-21 17:04:53.499170,19.375978,0.012809,,,,,,keyboard,after digit#5,"{""note"":""after digit#5"",""pd_used"":0}",2,0.008333,120.000000,1
Alavie_G01_CNS-LLF5HT7Y0,S01,OFFmed_OFFstim,20251121_170424,2025-11-21 17:04:34.122799,1,1,distractor,DISTRACTOR_ON,50,2025-11-21 17:04:53.512179,19.388787,5.043951,,4+9=13,,,,keyboard,,"{""value"":""4+9=13"",""isCorrectTruth"":true,""trueSum"":13,""pd_used"":1}",2,0.008333,120.000000,1
Alavie_G01_CNS-LLF5HT7Y0,S01,OFFmed_OFFstim,20251121_170424,2025-11-21 17:04:34.122799,1,1,distractor,DISTRACTOR_ANS,51,2025-11-21 17:04:59.271600,24.432737,0.000000,5.043951,4+9=13,F,0,,keyboard,key= (False),"{""value"":""4+9=13"",""entered"":""F"",""rt"":5.0439506000002439,""correct"":0,""note"":""key= (False)"",""truth"":true,""trueSum"":13,""shownSum"":13,""a"":4,""b"":9}",2,0.008333,120.000000,1
Alavie_G01_CNS-LLF5HT7Y0,S01,OFFmed_OFFstim,20251121_170424,2025-11-21 17:04:34.122799,1,1,distractor,ANS_WRONG,101,2025-11-21 17:04:59.272773,24.432737,0.725844,,,,,,keyboard,,{},2,0.008333,120.000000,1
Alavie_G01_CNS-LLF5HT7Y0,S01,OFFmed_OFFstim,20251121_170424,2025-11-21 17:04:34.122799,1,1,distractor,DISTRACTOR_OFF,52,2025-11-21 17:04:59.281571,25.158582,0.000000,,,,,,keyboard,,"{""pd_used"":0}",2,0.008333,120.000000,1
Alavie_G01_CNS-LLF5HT7Y0,S01,OFFmed_OFFstim,20251121_170424,2025-11-21 17:04:34.122799,1,1,distractor,FIX2_ON,60,2025-11-21 17:04:59.282339,25.158582,3.236615,,,,,,keyboard,immediate after response,"{""note"":""immediate after response""}",2,0.008333,120.000000,1
Alavie_G01_CNS-LLF5HT7Y0,S01,OFFmed_OFFstim,20251121_170424,2025-11-21 17:04:34.122799,1,1,fix2,FIX2_OFF,61,2025-11-21 17:05:02.518747,28.395196,0.009682,,,,,,keyboard,,"{""pd_used"":0}",2,0.008333,120.000000,1
Alavie_G01_CNS-LLF5HT7Y0,S01,OFFmed_OFFstim,20251121_170424,2025-11-21 17:04:34.122799,1,1,probe,RECALL_BLACK_ON,74,2025-11-21 17:05:02.528289,28.404878,0.012463,,,,,,keyboard,probe black page,"{""note"":""probe black page"",""pd_used"":0}",2,0.008333,120.000000,1
Alavie_G01_CNS-LLF5HT7Y0,S01,OFFmed_OFFstim,20251121_170424,2025-11-21 17:04:34.122799,1,1,probe,DIGIT_RECALL_LINE_1,161,2025-11-21 17:05:02.540483,28.417341,2.392532,,1,,,,keyboard,first recall question,"{""value"":1,""note"":""first recall question"",""pd_used"":1}",2,0.008333,120.000000,1
Alavie_G01_CNS-LLF5HT7Y0,S01,OFFmed_OFFstim,20251121_170424,2025-11-21 17:04:34.122799,1,1,probe,PROBE_DIGIT_OK_1,71,2025-11-21 17:05:05.771170,30.809873,2.128747,2.412559,slot#1,NaN,,,keyboard,probe_digit#1,"{""value"":""slot#1"",""entered"":null,""rt"":2.4125589000032051,""note"":""probe_digit#1""}",2,0.008333,120.000000,1
Alavie_G01_CNS-LLF5HT7Y0,S01,OFFmed_OFFstim,20251121_170424,2025-11-21 17:04:34.122799,1,1,probe,DIGIT_RECALL_LINE_2,162,2025-11-21 17:05:07.062142,32.938620,1.152622,,2,,,,keyboard,next recall question,"{""value"":2,""note"":""next recall question"",""pd_used"":1}",2,0.008333,120.000000,1
Alavie_G01_CNS-LLF5HT7Y0,S01,OFFmed_OFFstim,20251121_170424,2025-11-21 17:04:34.122799,1,1,probe,PROBE_DIGIT_OK_2,71,2025-11-21 17:05:08.836784,34.091241,1.995816,5.693928,slot#2,NaN,,,keyboard,probe_digit#2,"{""value"":""slot#2"",""entered"":null,""rt"":5.6939275000004272,""note"":""probe_digit#2""}",2,0.008333,120.000000,1
Alavie_G01_CNS-LLF5HT7Y0,S01,OFFmed_OFFstim,20251121_170424,2025-11-21 17:04:34.122799,1,1,probe,DIGIT_RECALL_LINE_3,163,2025-11-21 17:05:10.210582,36.087058,NaN,,3,,,,keyboard,next recall question,"{""value"":3,""note"":""next recall question"",""pd_used"":1}",2,0.008333,120.000000,1
