file_version,subject,condition,session,task_start_time,block,trial,phase,event_name,event_code,wall_clock,t_rel_sec,duration_to_next,rt,value_shown,entered_value,correct,key_name,device,note,json,screen_index,ifi,refresh_hz,pd_used
Sergio_G01_CNS-LLF5HT7Y0,S01,OFFmed_OFFstim,20260131_202947,2026-01-31 20:30:00.244648,1,NaN,,BLOCK_START,10,2026-01-31 20:30:21.031901,20.780278,0.027183,,,,,,keyboard,,{},1,0.008325,120.119110,1
Sergio_G01_CNS-LLF5HT7Y0,S01,OFFmed_OFFstim,20260131_202947,2026-01-31 20:30:00.244648,1,0,reading,START_PAGE_ON,4,2026-01-31 20:30:21.052788,20.807461,0.007463,,,,,,keyboard,,"{""pd_used"":0}",1,0.008325,120.119110,1
Sergio_G01_CNS-LLF5HT7Y0,S01,OFFmed_OFFstim,20260131_202947,2026-01-31 20:30:00.244648,1,0,reading,START_PAGE_ON,4,2026-01-31 20:30:21.052788,20.807461,35.368069,,,,,,keyboard,,"{""pd_used"":0}",1,0.008325,120.119110,1
Sergio_G01_CNS-LLF5HT7Y0,S01,OFFmed_OFFstim,20260131_202947,2026-01-31 20:30:00.244648,1,0,reading,START_PAGE_ON,4,2026-01-31 20:30:21.052788,20.807461,35.678660,,,,,,keyboard,,"{""pd_used"":0}",1,0.008325,120.119110,1
Sergio_G01_CNS-LLF5HT7Y0,S01,OFFmed_OFFstim,20260131_202947,2026-01-31 20:30:00.244648,1,0,reading,CONTROL_START,23,2026-01-31 20:30:56.732071,56.486121,0.025992,,,,,,keyboard,,{},1,0.008325,120.119110,1
Sergio_G01_CNS-LLF5HT7Y0,S01,OFFmed_OFFstim,20260131_202947,2026-01-31 20:30:00.244648,1,0,reading,DIGIT_READ1_ON,201,2026-01-31 20:30:56.757299,56.512112,0.711705,,6,,,,keyboard,digit#1 shown,"{""value"":6,""note"":""digit#1 shown"",""pd_used"":1}",1,0.008325,120.119110,1
Sergio_G01_CNS-LLF5HT7Y0,S01,OFFmed_OFFstim,20260131_202947,2026-01-31 20:30:00.244648,1,0,reading,PROBE_COUNT_OK_1,71,2026-01-31 20:30:57.874418,57.223818,0.416471,36.431150,slot#1,NaN,,,keyboard,probe_digit#1,"{""value"":""slot#1"",""entered"":null,""rt"":36.431149699998059,""note"":""probe_digit#1""}",1,0.008325,120.119110,1
Sergio_G01_CNS-LLF5HT7Y0,S01,OFFmed_OFFstim,20260131_202947,2026-01-31 20:30:00.244648,1,0,reading,DIGIT_READ1_OFF,211,2026-01-31 20:30:57.884886,57.640289,0.000000,,6,,,,keyboard,digit#1 off,"{""value"":6,""note"":""digit#1 off"",""pd_used"":0}",1,0.008325,120.119110,1
Sergio_G01_CNS-LLF5HT7Y0,S01,OFFmed_OFFstim,20260131_202947,2026-01-31 20:30:00.244648,1,0,reading,POSTREAD_FIX1_ON,231,2026-01-31 20:30:57.886590,57.640289,1.696446,,,,,,keyboard,after digit#1,"{""note"":""after digit#1""}",1,0.008325,120.119110,1
Sergio_G01_CNS-LLF5HT7Y0,S01,OFFmed_OFFstim,20260131_202947,2026-01-31 20:30:00.244648,1,0,reading,POSTREAD_FIX1_OFF,241,2026-01-31 20:30:59.581850,59.336735,0.019725,,,,,,keyboard,after digit#1,"{""note"":""after digit#1"",""pd_used"":0}",1,0.008325,120.119110,1
Sergio_G01_CNS-LLF5HT7Y0,S01,OFFmed_OFFstim,20260131_202947,2026-01-31 20:30:00.244648,1,0,reading,DIGIT_READ2_ON,202,2026-01-31 20:30:59.601496,59.356459,2.302885,,5,,,,keyboard,digit#2 shown,"{""value"":5,""note"":""digit#2 shown"",""pd_used"":1}",1,0.008325,120.119110,1
Sergio_G01_CNS-LLF5HT7Y0,S01,OFFmed_OFFstim,20260131_202947,2026-01-31 20:30:00.244648,1,0,reading,PROBE_COUNT_OK_2,71,2026-01-31 20:31:02.307633,61.659344,0.413567,40.866676,slot#2,NaN,,,keyboard,probe_digit#2,"{""value"":""slot#2"",""entered"":null,""rt"":40.866676099998585,""note"":""probe_digit#2""}",1,0.008325,120.119110,1
Sergio_G01_CNS-LLF5HT7Y0,S01,OFFmed_OFFstim,20260131_202947,2026-01-31 20:30:00.244648,1,0,reading,DIGIT_READ2_OFF,212,2026-01-31 20:31:02.318107,62.072911,0.000000,,5,,,,keyboard,digit#2 off,"{""value"":5,""note"":""digit#2 off"",""pd_used"":0}",1,0.008325,120.119110,1
Sergio_G01_CNS-LLF5HT7Y0,S01,OFFmed_OFFstim,20260131_202947,2026-01-31 20:30:00.244648,1,0,reading,POSTREAD_FIX2_ON,232,2026-01-31 20:31:02.319895,62.072911,1.842025,,,,,,keyboard,after digit#2,"{""note"":""after digit#2""}",1,0.008325,120.119110,1
Sergio_G01_CNS-LLF5HT7Y0,S01,OFFmed_OFFstim,20260131_202947,2026-01-31 20:30:00.244648,1,0,reading,POSTREAD_FIX2_OFF,242,2026-01-31 20:31:04.160221,63.914936,0.019799,,,,,,keyboard,after digit#2,"{""note"":""after digit#2"",""pd_used"":0}",1,0.008325,120.119110,1
Sergio_G01_CNS-LLF5HT7Y0,S01,OFFmed_OFFstim,20260131_202947,2026-01-31 20:30:00.244648,1,0,reading,DIGIT_READ3_ON,203,2026-01-31 20:31:04.179849,63.934734,0.591898,,2,,,,keyboard,digit#3 shown,"{""value"":2,""note"":""digit#3 shown"",""pd_used"":1}",1,0.008325,120.119110,1
Sergio_G01_CNS-LLF5HT7Y0,S01,OFFmed_OFFstim,20260131_202947,2026-01-31 20:30:00.244648,1,0,reading,PROBE_COUNT_OK_3,71,2026-01-31 20:31:05.166401,64.526632,0.404123,43.733964,slot#3,NaN,,,keyboard,probe_digit#3,"{""value"":""slot#3"",""entered"":null,""rt"":43.733964200000628,""note"":""probe_digit#3""}",1,0.008325,120.119110,1
Sergio_G01_CNS-LLF5HT7Y0,S01,OFFmed_OFFstim,20260131_202947,2026-01-31 20:30:00.244648,1,0,reading,DIGIT_READ3_OFF,213,2026-01-31 20:31:05.175725,64.930755,0.000000,,2,,,,keyboard,digit#3 off,"{""value"":2,""note"":""digit#3 off"",""pd_used"":0}",1,0.008325,120.119110,1
Sergio_G01_CNS-LLF5HT7Y0,S01,OFFmed_OFFstim,20260131_202947,2026-01-31 20:30:00.244648,1,0,reading,POSTREAD_FIX3_ON,233,2026-01-31 20:31:05.177096,64.930755,1.717341,,,,,,keyboard,after digit#3,"{""note"":""after digit#3""}",1,0.008325,120.119110,1
Sergio_G01_CNS-LLF5HT7Y0,S01,OFFmed_OFFstim,20260131_202947,2026-01-31 20:30:00.244648,1,0,reading,POSTREAD_FIX3_OFF,243,2026-01-31 20:31:06.893399,66.648096,0.016446,,,,,,keyboard,after digit#3,"{""note"":""after digit#3"",""pd_used"":0}",1,0.008325,120.119110,1
Sergio_G01_CNS-LLF5HT7Y0,S01,OFFmed_OFFstim,20260131_202947,2026-01-31 20:30:00.244648,1,0,reading,DIGIT_READ4_ON,204,2026-01-31 20:31:06.909582,66.664542,2.001546,,9,,,,keyboard,digit#4 shown,"{""value"":9,""note"":""digit#4 shown"",""pd_used"":1}",1,0.008325,120.119110,1
Sergio_G01_CNS-LLF5HT7Y0,S01,OFFmed_OFFstim,20260131_202947,2026-01-31 20:30:00.244648,1,0,reading,PROBE_COUNT_OK_4,71,2026-01-31 20:31:09.289150,68.666088,0.387502,47.873420,slot#4,NaN,,,keyboard,probe_digit#4,"{""value"":""slot#4"",""entered"":null,""rt"":47.873419999999896,""note"":""probe_digit#4""}",1,0.008325,120.119110,1
Sergio_G01_CNS-LLF5HT7Y0,S01,OFFmed_OFFstim,20260131_202947,2026-01-31 20:30:00.244648,1,0,reading,DIGIT_READ4_OFF,214,2026-01-31 20:31:09.298689,69.053589,0.000000,,9,,,,keyboard,digit#4 off,"{""value"":9,""note"":""digit#4 off"",""pd_used"":0}",1,0.008325,120.119110,1
Sergio_G01_CNS-LLF5HT7Y0,S01,OFFmed_OFFstim,20260131_202947,2026-01-31 20:30:00.244648,1,0,reading,POSTREAD_FIX4_ON,234,2026-01-31 20:31:09.300204,69.053589,1.952929,,,,,,keyboard,after digit#4,"{""note"":""after digit#4""}",1,0.008325,120.119110,1
Sergio_G01_CNS-LLF5HT7Y0,S01,OFFmed_OFFstim,20260131_202947,2026-01-31 20:30:00.244648,1,0,reading,POSTREAD_FIX4_OFF,244,2026-01-31 20:31:11.252011,71.006518,0.017945,,,,,,keyboard,after digit#4,"{""note"":""after digit#4"",""pd_used"":0}",1,0.008325,120.119110,1
Sergio_G01_CNS-LLF5HT7Y0,S01,OFFmed_OFFstim,20260131_202947,2026-01-31 20:30:00.244648,1,0,reading,DIGIT_READ5_ON,205,2026-01-31 20:31:11.269567,71.024463,0.548512,,7,,,,keyboard,digit#5 shown,"{""value"":7,""note"":""digit#5 shown"",""pd_used"":1}",1,0.008325,120.119110,1
Sergio_G01_CNS-LLF5HT7Y0,S01,OFFmed_OFFstim,20260131_202947,2026-01-31 20:30:00.244648,1,0,reading,PROBE_COUNT_OK_5,71,2026-01-31 20:31:12.307642,71.572975,0.498711,50.780307,slot#5,NaN,,,keyboard,probe_digit#5,"{""value"":""slot#5"",""entered"":null,""rt"":50.780307499997434,""note"":""probe_digit#5""}",1,0.008325,120.119110,1
Sergio_G01_CNS-LLF5HT7Y0,S01,OFFmed_OFFstim,20260131_202947,2026-01-31 20:30:00.244648,1,0,reading,DIGIT_READ5_OFF,215,2026-01-31 20:31:12.316753,72.071686,0.000000,,7,,,,keyboard,digit#5 off,"{""value"":7,""note"":""digit#5 off"",""pd_used"":0}",1,0.008325,120.119110,1
Sergio_G01_CNS-LLF5HT7Y0,S01,OFFmed_OFFstim,20260131_202947,2026-01-31 20:30:00.244648,1,0,reading,POSTREAD_FIX5_ON,235,2026-01-31 20:31:12.318162,72.071686,1.974009,,,,,,keyboard,after digit#5,"{""note"":""after digit#5""}",1,0.008325,120.119110,1
Sergio_G01_CNS-LLF5HT7Y0,S01,OFFmed_OFFstim,20260131_202947,2026-01-31 20:30:00.244648,1,0,reading,POSTREAD_FIX5_OFF,245,2026-01-31 20:31:14.291078,74.045695,0.018924,,,,,,keyboard,after digit#5,"{""note"":""after digit#5"",""pd_used"":0}",1,0.008325,120.119110,1
Sergio_G01_CNS-LLF5HT7Y0,S01,OFFmed_OFFstim,20260131_202947,2026-01-31 20:30:00.244648,1,0,reading,DIGIT_READ6_ON,206,2026-01-31 20:31:14.309815,74.064620,0.674790,,4,,,,keyboard,digit#6 shown,"{""value"":4,""note"":""digit#6 shown"",""pd_used"":1}",1,0.008325,120.119110,1
Sergio_G01_CNS-LLF5HT7Y0,S01,OFFmed_OFFstim,20260131_202947,2026-01-31 20:30:00.244648,1,0,reading,PROBE_COUNT_OK_6,71,2026-01-31 20:31:15.416261,74.739410,0.441320,53.946742,slot#6,NaN,,,keyboard,probe_digit#6,"{""value"":""slot#6"",""entered"":null,""rt"":53.9467416999978,""note"":""probe_digit#6""}",1,0.008325,120.119110,1
Sergio_G01_CNS-LLF5HT7Y0,S01,OFFmed_OFFstim,20260131_202947,2026-01-31 20:30:00.244648,1,0,reading,DIGIT_READ6_OFF,216,2026-01-31 20:31:15.425796,75.180730,0.000000,,4,,,,keyboard,digit#6 off,"{""value"":4,""note"":""digit#6 off"",""pd_used"":0}",1,0.008325,120.119110,1
Sergio_G01_CNS-LLF5HT7Y0,S01,OFFmed_OFFstim,20260131_202947,2026-01-31 20:30:00.244648,1,0,reading,POSTREAD_FIX6_ON,236,2026-01-31 20:31:15.427268,75.180730,1.780095,,,,,,keyboard,after digit#6,"{""note"":""after digit#6""}",1,0.008325,120.119110,1
Sergio_G01_CNS-LLF5HT7Y0,S01,OFFmed_OFFstim,20260131_202947,2026-01-31 20:30:00.244648,1,0,reading,POSTREAD_FIX6_OFF,246,2026-01-31 20:31:17.206136,76.960825,0.020406,,,,,,keyboard,after digit#6,"{""note"":""after digit#6"",""pd_used"":0}",1,0.008325,120.119110,1
Sergio_G01_CNS-LLF5HT7Y0,S01,OFFmed_OFFstim,20260131_202947,2026-01-31 20:30:00.244648,1,0,reading,DIGIT_READ7_ON,207,2026-01-31 20:31:17.226244,76.981231,0.604673,,8,,,,keyboard,digit#7 shown,"{""value"":8,""note"":""digit#7 shown"",""pd_used"":1}",1,0.008325,120.119110,1
Sergio_G01_CNS-LLF5HT7Y0,S01,OFFmed_OFFstim,20260131_202947,2026-01-31 20:30:00.244648,1,0,reading,PROBE_COUNT_OK_7,71,2026-01-31 20:31:18.236504,77.585905,0.414039,56.793237,slot#7,NaN,,,keyboard,probe_digit#7,"{""value"":""slot#7"",""entered"":null,""rt"":56.793236899997282,""note"":""probe_digit#7""}",1,0.008325,120.119110,1
Sergio_G01_CNS-LLF5HT7Y0,S01,OFFmed_OFFstim,20260131_202947,2026-01-31 20:30:00.244648,1,0,reading,DIGIT_READ7_OFF,217,2026-01-31 20:31:18.245059,77.999944,0.000000,,8,,,,keyboard,digit#7 off,"{""value"":8,""note"":""digit#7 off"",""pd_used"":0}",1,0.008325,120.119110,1
Sergio_G01_CNS-LLF5HT7Y0,S01,OFFmed_OFFstim,20260131_202947,2026-01-31 20:30:00.244648,1,0,reading,POSTREAD_FIX7_ON,237,2026-01-31 20:31:18.246649,77.999944,1.512865,,,,,,keyboard,after digit#7,"{""note"":""after digit#7""}",1,0.008325,120.119110,1
Sergio_G01_CNS-LLF5HT7Y0,S01,OFFmed_OFFstim,20260131_202947,2026-01-31 20:30:00.244648,1,0,reading,POSTREAD_FIX7_OFF,247,2026-01-31 20:31:19.758190,79.512809,0.018088,,,,,,keyboard,after digit#7,"{""note"":""after digit#7"",""pd_used"":0}",1,0.008325,120.119110,1
Sergio_G01_CNS-LLF5HT7Y0,S01,OFFmed_OFFstim,20260131_202947,2026-01-31 20:30:00.244648,1,0,reading,DIGIT_READ8_ON,208,2026-01-31 20:31:19.775942,79.530897,0.760238,,0,,,,keyboard,digit#8 shown,"{""value"":0,""note"":""digit#8 shown"",""pd_used"":1}",1,0.008325,120.119110,1
Sergio_G01_CNS-LLF5HT7Y0,S01,OFFmed_OFFstim,20260131_202947,2026-01-31 20:30:00.244648,1,0,reading,PROBE_COUNT_OK_8,71,2026-01-31 20:31:21.015113,80.291135,0.488102,59.498467,slot#8,NaN,,,keyboard,probe_digit#8,"{""value"":""slot#8"",""entered"":null,""rt"":59.498466799999733,""note"":""probe_digit#8""}",1,0.008325,120.119110,1
Sergio_G01_CNS-LLF5HT7Y0,S01,OFFmed_OFFstim,20260131_202947,2026-01-31 20:30:00.244648,1,0,reading,DIGIT_READ8_OFF,218,2026-01-31 20:31:21.024456,80.779237,0.000000,,0,,,,keyboard,digit#8 off,"{""value"":0,""note"":""digit#8 off"",""pd_used"":0}",1,0.008325,120.119110,1
Sergio_G01_CNS-LLF5HT7Y0,S01,OFFmed_OFFstim,20260131_202947,2026-01-31 20:30:00.244648,1,0,reading,POSTREAD_FIX8_ON,238,2026-01-31 20:31:21.025945,80.779237,1.889968,,,,,,keyboard,after digit#8,"{""note"":""after digit#8""}",1,0.008325,120.119110,1
Sergio_G01_CNS-LLF5HT7Y0,S01,OFFmed_OFFstim,20260131_202947,2026-01-31 20:30:00.244648,1,0,reading,POSTREAD_FIX8_OFF,248,2026-01-31 20:31:22.914787,82.669205,0.020670,,,,,,keyboard,after digit#8,"{""note"":""after digit#8"",""pd_used"":0}",1,0.008325,120.119110,1
Sergio_G01_CNS-LLF5HT7Y0,S01,OFFmed_OFFstim,20260131_202947,2026-01-31 20:30:00.244648,1,0,reading,DIGIT_READ9_ON,209,2026-01-31 20:31:22.934929,82.689875,0.699915,,9,,,,keyboard,digit#9 shown,"{""value"":9,""note"":""digit#9 shown"",""pd_used"":1}",1,0.008325,120.119110,1
Sergio_G01_CNS-LLF5HT7Y0,S01,OFFmed_OFFstim,20260131_202947,2026-01-31 20:30:00.244648,1,0,reading,PROBE_COUNT_OK_9,71,2026-01-31 20:31:23.967241,83.389790,0.341315,62.597122,slot#9,NaN,,,keyboard,probe_digit#9,"{""value"":""slot#9"",""entered"":null,""rt"":62.597121700000571,""note"":""probe_digit#9""}",1,0.008325,120.119110,1
Sergio_G01_CNS-LLF5HT7Y0,S01,OFFmed_OFFstim,20260131_202947,2026-01-31 20:30:00.244648,1,0,reading,DIGIT_READ9_OFF,219,2026-01-31 20:31:23.976194,83.731105,0.000000,,9,,,,keyboard,digit#9 off,"{""value"":9,""note"":""digit#9 off"",""pd_used"":0}",1,0.008325,120.119110,1
Sergio_G01_CNS-LLF5HT7Y0,S01,OFFmed_OFFstim,20260131_202947,2026-01-31 20:30:00.244648,1,0,reading,POSTREAD_FIX9_ON,239,2026-01-31 20:31:23.977642,83.731105,1.913484,,,,,,keyboard,after digit#9,"{""note"":""after digit#9""}",1,0.008325,120.119110,1
Sergio_G01_CNS-LLF5HT7Y0,S01,OFFmed_OFFstim,20260131_202947,2026-01-31 20:30:00.244648,1,0,reading,POSTREAD_FIX9_OFF,249,2026-01-31 20:31:25.889415,85.644589,0.019189,,,,,,keyboard,after digit#9,"{""note"":""after digit#9"",""pd_used"":0}",1,0.008325,120.119110,1
Sergio_G01_CNS-LLF5HT7Y0,S01,OFFmed_OFFstim,20260131_202947,2026-01-31 20:30:00.244648,1,0,reading,DIGIT_READ10_ON,210,2026-01-31 20:31:25.908592,85.663777,0.701401,,6,,,,keyboard,digit#10 shown,"{""value"":6,""note"":""digit#10 shown"",""pd_used"":1}",1,0.008325,120.119110,1
Sergio_G01_CNS-LLF5HT7Y0,S01,OFFmed_OFFstim,20260131_202947,2026-01-31 20:30:00.244648,1,0,reading,PROBE_COUNT_OK_10,71,2026-01-31 20:31:26.954692,86.365178,0.353288,65.572510,slot#10,NaN,,,keyboard,probe_digit#10,"{""value"":""slot#10"",""entered"":null,""rt"":65.572510099998908,""note"":""probe_digit#10""}",1,0.008325,120.119110,1
Sergio_G01_CNS-LLF5HT7Y0,S01,OFFmed_OFFstim,20260131_202947,2026-01-31 20:30:00.244648,1,0,reading,DIGIT_READ10_OFF,220,2026-01-31 20:31:26.963312,86.718466,0.000000,,6,,,,keyboard,digit#10 off,"{""value"":6,""note"":""digit#10 off"",""pd_used"":0}",1,0.008325,120.119110,1
Sergio_G01_CNS-LLF5HT7Y0,S01,OFFmed_OFFstim,20260131_202947,2026-01-31 20:30:00.244648,1,0,reading,POSTREAD_FIX10_ON,240,2026-01-31 20:31:26.964334,86.718466,3.027713,,,,,,keyboard,after digit#10,"{""note"":""after digit#10""}",1,0.008325,120.119110,1
Sergio_G01_CNS-LLF5HT7Y0,S01,OFFmed_OFFstim,20260131_202947,2026-01-31 20:30:00.244648,1,0,reading,POSTREAD_FIX10_OFF,250,2026-01-31 20:31:29.991462,89.746180,0.008958,,,,,,keyboard,after digit#10,"{""note"":""after digit#10"",""pd_used"":0}",1,0.008325,120.119110,1
Sergio_G01_CNS-LLF5HT7Y0,S01,OFFmed_OFFstim,20260131_202947,2026-01-31 20:30:00.244648,1,0,reading,CONTROL_END,24,2026-01-31 20:31:29.999769,89.755138,0.007691,,,,,,keyboard,,{},1,0.008325,120.119110,1
Sergio_G01_CNS-LLF5HT7Y0,S01,OFFmed_OFFstim,20260131_202947,2026-01-31 20:30:00.244648,1,0,reading,START_PAGE_ON,4,2026-01-31 20:31:30.007896,89.762828,0.014252,,,,,,keyboard,,"{""pd_used"":0}",1,0.008325,120.119110,1
Sergio_G01_CNS-LLF5HT7Y0,S01,OFFmed_OFFstim,20260131_202947,2026-01-31 20:30:00.244648,1,0,reading,START_PAGE_ON,4,2026-01-31 20:31:30.007896,89.762828,1.764520,,,,,,keyboard,,"{""pd_used"":0}",1,0.008325,120.119110,1
Sergio_G01_CNS-LLF5HT7Y0,S01,OFFmed_OFFstim,20260131_202947,2026-01-31 20:30:00.244648,1,0,reading,START_PAGE_ON,4,2026-01-31 20:31:30.007896,89.762828,2.075583,,,,,,keyboard,,"{""pd_used"":0}",1,0.008325,120.119110,1
Sergio_G01_CNS-LLF5HT7Y0,S01,OFFmed_OFFstim,20260131_202947,2026-01-31 20:30:00.244648,1,0,reading,SESSION_START,1,2026-01-31 20:31:32.084454,91.838411,0.003218,,,,,,keyboard,,{},1,0.008325,120.119110,1
Sergio_G01_CNS-LLF5HT7Y0,S01,OFFmed_OFFstim,20260131_202947,2026-01-31 20:30:00.244648,1,1,reading,TRIAL_CHANGE,22,2026-01-31 20:31:32.086846,91.841629,0.001836,,,,,,keyboard,trial transition,"{""note"":""trial transition""}",1,0.008325,120.119110,1
Sergio_G01_CNS-LLF5HT7Y0,S01,OFFmed_OFFstim,20260131_202947,2026-01-31 20:30:00.244648,1,1,reading,TRIAL_START,20,2026-01-31 20:31:32.088567,91.843466,0.012129,,,,,,keyboard,,{},1,0.008325,120.119110,1
Sergio_G01_CNS-LLF5HT7Y0,S01,OFFmed_OFFstim,20260131_202947,2026-01-31 20:30:00.244648,1,1,fix1,FIX1_ON,30,2026-01-31 20:31:32.100723,91.855595,3.497847,,,,,,keyboard,,"{""pd_used"":0}",1,0.008325,120.119110,1
Sergio_G01_CNS-LLF5HT7Y0,S01,OFFmed_OFFstim,20260131_202947,2026-01-31 20:30:00.244648,1,1,fix1,FIX1_OFF,31,2026-01-31 20:31:35.598775,95.353442,0.012002,,,,,,keyboard,,"{""pd_used"":0}",1,0.008325,120.119110,1
Sergio_G01_CNS-LLF5HT7Y0,S01,OFFmed_OFFstim,20260131_202947,2026-01-31 20:30:00.244648,1,1,digit,DIGIT1_ON,141,2026-01-31 20:31:35.610644,95.365444,0.513238,,4,,,,keyboard,digit#1 shown,"{""value"":4,""note"":""digit#1 shown"",""pd_used"":1}",1,0.008325,120.119110,1
Sergio_G01_CNS-LLF5HT7Y0,S01,OFFmed_OFFstim,20260131_202947,2026-01-31 20:30:00.244648,1,1,digit,DIGIT1_OFF,146,2026-01-31 20:31:36.123973,95.878682,0.000000,,4,,,,keyboard,digit#1 off,"{""value"":4,""note"":""digit#1 off"",""pd_used"":0}",1,0.008325,120.119110,1
Sergio_G01_CNS-LLF5HT7Y0,S01,OFFmed_OFFstim,20260131_202947,2026-01-31 20:30:00.244648,1,1,digit,POSTDIG_FIX1_ON,151,2026-01-31 20:31:36.126424,95.878682,1.933186,,,,,,keyboard,after digit#1,"{""note"":""after digit#1""}",1,0.008325,120.119110,1
Sergio_G01_CNS-LLF5HT7Y0,S01,OFFmed_OFFstim,20260131_202947,2026-01-31 20:30:00.244648,1,1,digit,POSTDIG_FIX1_OFF,156,2026-01-31 20:31:38.057238,97.811868,0.010217,,,,,,keyboard,after digit#1,"{""note"":""after digit#1"",""pd_used"":0}",1,0.008325,120.119110,1
Sergio_G01_CNS-LLF5HT7Y0,S01,OFFmed_OFFstim,20260131_202947,2026-01-31 20:30:00.244648,1,1,digit,DIGIT2_ON,142,2026-01-31 20:31:38.067180,97.822084,0.511469,,2,,,,keyboard,digit#2 shown,"{""value"":2,""note"":""digit#2 shown"",""pd_used"":1}",1,0.008325,120.119110,1
Sergio_G01_CNS-LLF5HT7Y0,S01,OFFmed_OFFstim,20260131_202947,2026-01-31 20:30:00.244648,1,1,digit,DIGIT2_OFF,147,2026-01-31 20:31:38.578827,98.333553,0.000000,,2,,,,keyboard,digit#2 off,"{""value"":2,""note"":""digit#2 off"",""pd_used"":0}",1,0.008325,120.119110,1
Sergio_G01_CNS-LLF5HT7Y0,S01,OFFmed_OFFstim,20260131_202947,2026-01-31 20:30:00.244648,1,1,digit,POSTDIG_FIX2_ON,152,2026-01-31 20:31:38.580930,98.333553,1.846769,,,,,,keyboard,after digit#2,"{""note"":""after digit#2""}",1,0.008325,120.119110,1
Sergio_G01_CNS-LLF5HT7Y0,S01,OFFmed_OFFstim,20260131_202947,2026-01-31 20:30:00.244648,1,1,digit,POSTDIG_FIX2_OFF,157,2026-01-31 20:31:40.425744,100.180323,0.013224,,,,,,keyboard,after digit#2,"{""note"":""after digit#2"",""pd_used"":0}",1,0.008325,120.119110,1
Sergio_G01_CNS-LLF5HT7Y0,S01,OFFmed_OFFstim,20260131_202947,2026-01-31 20:30:00.244648,1,1,digit,DIGIT3_ON,143,2026-01-31 20:31:40.438592,100.193547,0.510622,,8,,,,keyboard,digit#3 shown,"{""value"":8,""note"":""digit#3 shown"",""pd_used"":1}",1,0.008325,120.119110,1
Sergio_G01_CNS-LLF5HT7Y0,S01,OFFmed_OFFstim,20260131_202947,2026-01-31 20:30:00.244648,1,1,digit,DIGIT3_OFF,148,2026-01-31 20:31:40.949636,100.704169,0.000000,,8,,,,keyboard,digit#3 off,"{""value"":8,""note"":""digit#3 off"",""pd_used"":0}",1,0.008325,120.119110,1
Sergio_G01_CNS-LLF5HT7Y0,S01,OFFmed_OFFstim,20260131_202947,2026-01-31 20:30:00.244648,1,1,digit,POSTDIG_FIX3_ON,153,2026-01-31 20:31:40.951378,100.704169,1.803182,,,,,,keyboard,after digit#3,"{""note"":""after digit#3""}",1,0.008325,120.119110,1
Sergio_G01_CNS-LLF5HT7Y0,S01,OFFmed_OFFstim,20260131_202947,2026-01-31 20:30:00.244648,1,1,digit,POSTDIG_FIX3_OFF,158,2026-01-31 20:31:42.752821,102.507351,0.010520,,,,,,keyboard,after digit#3,"{""note"":""after digit#3"",""pd_used"":0}",1,0.008325,120.119110,1
Sergio_G01_CNS-LLF5HT7Y0,S01,OFFmed_OFFstim,20260131_202947,2026-01-31 20:30:00.244648,1,1,digit,DIGIT4_ON,144,2026-01-31 20:31:42.762925,102.517871,0.513929,,4,,,,keyboard,digit#4 shown,"{""value"":4,""note"":""digit#4 shown"",""pd_used"":1}",1,0.008325,120.119110,1
Sergio_G01_CNS-LLF5HT7Y0,S01,OFFmed_OFFstim,20260131_202947,2026-01-31 20:30:00.244648,1,1,digit,DIGIT4_OFF,149,2026-01-31 20:31:43.277188,103.031800,0.000000,,4,,,,keyboard,digit#4 off,"{""value"":4,""note"":""digit#4 off"",""pd_used"":0}",1,0.008325,120.119110,1
Sergio_G01_CNS-LLF5HT7Y0,S01,OFFmed_OFFstim,20260131_202947,2026-01-31 20:30:00.244648,1,1,digit,POSTDIG_FIX4_ON,154,2026-01-31 20:31:43.278716,103.031800,1.720582,,,,,,keyboard,after digit#4,"{""note"":""after digit#4""}",1,0.008325,120.119110,1
Sergio_G01_CNS-LLF5HT7Y0,S01,OFFmed_OFFstim,20260131_202947,2026-01-31 20:30:00.244648,1,1,digit,POSTDIG_FIX4_OFF,159,2026-01-31 20:31:44.997168,104.752382,0.009344,,,,,,keyboard,after digit#4,"{""note"":""after digit#4"",""pd_used"":0}",1,0.008325,120.119110,1
Sergio_G01_CNS-LLF5HT7Y0,S01,OFFmed_OFFstim,20260131_202947,2026-01-31 20:30:00.244648,1,1,digit,DIGIT5_ON,145,2026-01-31 20:31:45.006759,104.761725,0.510624,,7,,,,keyboard,digit#5 shown,"{""value"":7,""note"":""digit#5 shown"",""pd_used"":1}",1,0.008325,120.119110,1
Sergio_G01_CNS-LLF5HT7Y0,S01,OFFmed_OFFstim,20260131_202947,2026-01-31 20:30:00.244648,1,1,digit,DIGIT5_OFF,150,2026-01-31 20:31:45.517606,105.272349,0.000000,,7,,,,keyboard,digit#5 off,"{""value"":7,""note"":""digit#5 off"",""pd_used"":0}",1,0.008325,120.119110,1
Sergio_G01_CNS-LLF5HT7Y0,S01,OFFmed_OFFstim,20260131_202947,2026-01-31 20:30:00.244648,1,1,digit,POSTDIG_FIX5_ON,155,2026-01-31 20:31:45.519143,105.272349,3.217575,,,,,,keyboard,after digit#5,"{""note"":""after digit#5""}",1,0.008325,120.119110,1
Sergio_G01_CNS-LLF5HT7Y0,S01,OFFmed_OFFstim,20260131_202947,2026-01-31 20:30:00.244648,1,1,digit,POSTDIG_FIX5_OFF,160,2026-01-31 20:31:48.735381,108.489924,0.015066,,,,,,keyboard,after digit#5,"{""note"":""after digit#5"",""pd_used"":0}",1,0.008325,120.119110,1
Sergio_G01_CNS-LLF5HT7Y0,S01,OFFmed_OFFstim,20260131_202947,2026-01-31 20:30:00.244648,1,1,distractor,DISTRACTOR_ON,50,2026-01-31 20:31:48.750310,108.504991,2.373929,,9+1=10,,,,keyboard,,"{""value"":""9+1=10"",""isCorrectTruth"":true,""trueSum"":10,""pd_used"":1}",1,0.008325,120.119110,1
Sergio_G01_CNS-LLF5HT7Y0,S01,OFFmed_OFFstim,20260131_202947,2026-01-31 20:30:00.244648,1,1,distractor,DISTRACTOR_ANS,51,2026-01-31 20:31:51.481406,110.878920,0.000000,2.373929,9+1=10,F,0,,keyboard,key= (False),"{""value"":""9+1=10"",""entered"":""F"",""rt"":2.373929199999111,""correct"":0,""note"":""key= (False)"",""truth"":true,""trueSum"":10,""shownSum"":10,""a"":9,""b"":1}",1,0.008325,120.119110,1
Sergio_G01_CNS-LLF5HT7Y0,S01,OFFmed_OFFstim,20260131_202947,2026-01-31 20:30:00.244648,1,1,distractor,ANS_WRONG,101,2026-01-31 20:31:51.483003,110.878920,0.369714,,,,,,keyboard,,{},1,0.008325,120.119110,1
Sergio_G01_CNS-LLF5HT7Y0,S01,OFFmed_OFFstim,20260131_202947,2026-01-31 20:30:00.244648,1,1,distractor,DISTRACTOR_OFF,52,2026-01-31 20:31:51.493231,111.248633,0.000000,,,,,,keyboard,,"{""pd_used"":0}",1,0.008325,120.119110,1
Sergio_G01_CNS-LLF5HT7Y0,S01,OFFmed_OFFstim,20260131_202947,2026-01-31 20:30:00.244648,1,1,distractor,FIX2_ON,60,2026-01-31 20:31:51.494232,111.248633,3.247689,,,,,,keyboard,immediate after response,"{""note"":""immediate after response""}",1,0.008325,120.119110,1
Sergio_G01_CNS-LLF5HT7Y0,S01,OFFmed_OFFstim,20260131_202947,2026-01-31 20:30:00.244648,1,1,fix2,FIX2_OFF,61,2026-01-31 20:31:54.741709,114.496322,0.013013,,,,,,keyboard,,"{""pd_used"":0}",1,0.008325,120.119110,1
Sergio_G01_CNS-LLF5HT7Y0,S01,OFFmed_OFFstim,20260131_202947,2026-01-31 20:30:00.244648,1,1,probe,DIGIT_RECALL_LINE_1,161,2026-01-31 20:31:54.754427,114.509335,1.322152,,1,,,,keyboard,first recall question,"{""value"":1,""note"":""first recall question"",""pd_used"":1}",1,0.008325,120.119110,1
Sergio_G01_CNS-LLF5HT7Y0,S01,OFFmed_OFFstim,20260131_202947,2026-01-31 20:30:00.244648,1,1,probe,PROBE_DIGIT_OK_1,71,2026-01-31 20:31:56.418560,115.831487,0.352809,1.333019,slot#1,NaN,,,keyboard,probe_digit#1,"{""value"":""slot#1"",""entered"":null,""rt"":1.33301930000016,""note"":""probe_digit#1""}",1,0.008325,120.119110,1
Sergio_G01_CNS-LLF5HT7Y0,S01,OFFmed_OFFstim,20260131_202947,2026-01-31 20:30:00.244648,1,1,probe,DIGIT1_OFF,146,2026-01-31 20:31:56.429449,116.184296,0.000000,,7,,,,keyboard,digit#1 off,"{""value"":7,""note"":""digit#1 off"",""pd_used"":0}",1,0.008325,120.119110,1
Sergio_G01_CNS-LLF5HT7Y0,S01,OFFmed_OFFstim,20260131_202947,2026-01-31 20:30:00.244648,1,1,probe,POSTDIG_FIX1_ON,151,2026-01-31 20:31:56.431885,116.184296,1.912378,,,,,,keyboard,after digit#1,"{""note"":""after digit#1""}",1,0.008325,120.119110,1
Sergio_G01_CNS-LLF5HT7Y0,S01,OFFmed_OFFstim,20260131_202947,2026-01-31 20:30:00.244648,1,1,probe,POSTDIG_FIX1_OFF,156,2026-01-31 20:31:58.341626,118.096674,0.018119,,,,,,keyboard,after digit#1,"{""note"":""after digit#1"",""pd_used"":0}",1,0.008325,120.119110,1
Sergio_G01_CNS-LLF5HT7Y0,S01,OFFmed_OFFstim,20260131_202947,2026-01-31 20:30:00.244648,1,1,probe,DIGIT_RECALL_LINE_2,162,2026-01-31 20:31:58.359825,118.114793,2.170447,,2,,,,keyboard,next recall question,"{""value"":2,""note"":""next recall question"",""pd_used"":1}",1,0.008325,120.119110,1
Sergio_G01_CNS-LLF5HT7Y0,S01,OFFmed_OFFstim,20260131_202947,2026-01-31 20:30:00.244648,1,1,probe,PROBE_DIGIT_OK_2,71,2026-01-31 20:32:00.926136,120.285240,0.404152,5.786772,slot#2,NaN,,,keyboard,probe_digit#2,"{""value"":""slot#2"",""entered"":null,""rt"":5.7867716000000655,""note"":""probe_digit#2""}",1,0.008325,120.119110,1
Sergio_G01_CNS-LLF5HT7Y0,S01,OFFmed_OFFstim,20260131_202947,2026-01-31 20:30:00.244648,1,1,probe,DIGIT2_OFF,147,2026-01-31 20:32:00.934173,120.689392,0.000000,,7,,,,keyboard,digit#2 off,"{""value"":7,""note"":""digit#2 off"",""pd_used"":0}",1,0.008325,120.119110,1
Sergio_G01_CNS-LLF5HT7Y0,S01,OFFmed_OFFstim,20260131_202947,2026-01-31 20:30:00.244648,1,1,probe,POSTDIG_FIX2_ON,152,2026-01-31 20:32:00.935032,120.689392,1.843654,,,,,,keyboard,after digit#2,"{""note"":""after digit#2""}",1,0.008325,120.119110,1
Sergio_G01_CNS-LLF5HT7Y0,S01,OFFmed_OFFstim,20260131_202947,2026-01-31 20:30:00.244648,1,1,probe,POSTDIG_FIX2_OFF,157,2026-01-31 20:32:02.778525,122.533045,0.016868,,,,,,keyboard,after digit#2,"{""note"":""after digit#2"",""pd_used"":0}",1,0.008325,120.119110,1
Sergio_G01_CNS-LLF5HT7Y0,S01,OFFmed_OFFstim,20260131_202947,2026-01-31 20:30:00.244648,1,1,probe,DIGIT_RECALL_LINE_3,163,2026-01-31 20:32:02.794924,122.549913,1.104163,,3,,,,keyboard,next recall question,"{""value"":3,""note"":""next recall question"",""pd_used"":1}",1,0.008325,120.119110,1
Sergio_G01_CNS-LLF5HT7Y0,S01,OFFmed_OFFstim,20260131_202947,2026-01-31 20:30:00.244648,1,1,probe,PROBE_DIGIT_OK_3,71,2026-01-31 20:32:04.246785,123.654076,0.357085,9.155608,slot#3,NaN,,,keyboard,probe_digit#3,"{""value"":""slot#3"",""entered"":null,""rt"":9.1556077000022924,""note"":""probe_digit#3""}",1,0.008325,120.119110,1
Sergio_G01_CNS-LLF5HT7Y0,S01,OFFmed_OFFstim,20260131_202947,2026-01-31 20:30:00.244648,1,1,probe,DIGIT3_OFF,148,2026-01-31 20:32:04.256276,124.011161,0.000000,,7,,,,keyboard,digit#3 off,"{""value"":7,""note"":""digit#3 off"",""pd_used"":0}",1,0.008325,120.119110,1
Sergio_G01_CNS-LLF5HT7Y0,S01,OFFmed_OFFstim,20260131_202947,2026-01-31 20:30:00.244648,1,1,probe,POSTDIG_FIX3_ON,153,2026-01-31 20:32:04.257658,124.011161,1.924196,,,,,,keyboard,after digit#3,"{""note"":""after digit#3""}",1,0.008325,120.119110,1
Sergio_G01_CNS-LLF5HT7Y0,S01,OFFmed_OFFstim,20260131_202947,2026-01-31 20:30:00.244648,1,1,probe,POSTDIG_FIX3_OFF,158,2026-01-31 20:32:06.180250,125.935357,0.020295,,,,,,keyboard,after digit#3,"{""note"":""after digit#3"",""pd_used"":0}",1,0.008325,120.119110,1
Sergio_G01_CNS-LLF5HT7Y0,S01,OFFmed_OFFstim,20260131_202947,2026-01-31 20:30:00.244648,1,1,probe,DIGIT_RECALL_LINE_4,164,2026-01-31 20:32:06.200299,125.955652,3.813849,,4,,,,keyboard,next recall question,"{""value"":4,""note"":""next recall question"",""pd_used"":1}",1,0.008325,120.119110,1
Sergio_G01_CNS-LLF5HT7Y0,S01,OFFmed_OFFstim,20260131_202947,2026-01-31 20:30:00.244648,1,1,probe,PROBE_DIGIT_OK_4,71,2026-01-31 20:32:10.388671,129.769501,0.383496,15.271033,slot#4,NaN,,,keyboard,probe_digit#4,"{""value"":""slot#4"",""entered"":null,""rt"":15.271033000000898,""note"":""probe_digit#4""}",1,0.008325,120.119110,1
Sergio_G01_CNS-LLF5HT7Y0,S01,OFFmed_OFFstim,20260131_202947,2026-01-31 20:30:00.244648,1,1,probe,DIGIT4_OFF,149,2026-01-31 20:32:10.398079,130.152998,0.000000,,7,,,,keyboard,digit#4 off,"{""value"":7,""note"":""digit#4 off"",""pd_used"":0}",1,0.008325,120.119110,1
Sergio_G01_CNS-LLF5HT7Y0,S01,OFFmed_OFFstim,20260131_202947,2026-01-31 20:30:00.244648,1,1,probe,POSTDIG_FIX4_ON,154,2026-01-31 20:32:10.399473,130.152998,1.835430,,,,,,keyboard,after digit#4,"{""note"":""after digit#4""}",1,0.008325,120.119110,1
Sergio_G01_CNS-LLF5HT7Y0,S01,OFFmed_OFFstim,20260131_202947,2026-01-31 20:30:00.244648,1,1,probe,POSTDIG_FIX4_OFF,159,2026-01-31 20:32:12.233700,131.988427,0.017266,,,,,,keyboard,after digit#4,"{""note"":""after digit#4"",""pd_used"":0}",1,0.008325,120.119110,1
Sergio_G01_CNS-LLF5HT7Y0,S01,OFFmed_OFFstim,20260131_202947,2026-01-31 20:30:00.244648,1,1,probe,DIGIT_RECALL_LINE_5,165,2026-01-31 20:32:12.250706,132.005693,0.723026,,5,,,,keyboard,next recall question,"{""value"":5,""note"":""next recall question"",""pd_used"":1}",1,0.008325,120.119110,1
Sergio_G01_CNS-LLF5HT7Y0,S01,OFFmed_OFFstim,20260131_202947,2026-01-31 20:30:00.244648,1,1,probe,PROBE_DIGIT_OK_5,71,2026-01-31 20:32:13.396417,132.728718,0.433104,18.230250,slot#5,NaN,,,keyboard,probe_digit#5,"{""value"":""slot#5"",""entered"":null,""rt"":18.23025029999917,""note"":""probe_digit#5""}",1,0.008325,120.119110,1
Sergio_G01_CNS-LLF5HT7Y0,S01,OFFmed_OFFstim,20260131_202947,2026-01-31 20:30:00.244648,1,1,probe,DIGIT5_OFF,150,2026-01-31 20:32:13.406916,133.161823,0.000000,,7,,,,keyboard,digit#5 off,"{""value"":7,""note"":""digit#5 off"",""pd_used"":0}",1,0.008325,120.119110,1
Sergio_G01_CNS-LLF5HT7Y0,S01,OFFmed_OFFstim,20260131_202947,2026-01-31 20:30:00.244648,1,1,probe,POSTDIG_FIX5_ON,155,2026-01-31 20:32:13.408464,133.161823,3.309528,,,,,,keyboard,after digit#5,"{""note"":""after digit#5""}",1,0.008325,120.119110,1
Sergio_G01_CNS-LLF5HT7Y0,S01,OFFmed_OFFstim,20260131_202947,2026-01-31 20:30:00.244648,1,1,probe,POSTDIG_FIX5_OFF,160,2026-01-31 20:32:16.716802,136.471351,0.007873,,,,,,keyboard,after digit#5,"{""note"":""after digit#5"",""pd_used"":0}",1,0.008325,120.119110,1
Sergio_G01_CNS-LLF5HT7Y0,S01,OFFmed_OFFstim,20260131_202947,2026-01-31 20:30:00.244648,1,1,probe,PROBE_DONE,73,2026-01-31 20:32:16.724596,136.479224,0.002391,,,,,,keyboard,probe complete,"{""value"":"""",""note"":""probe complete""}",1,0.008325,120.119110,1
Sergio_G01_CNS-LLF5HT7Y0,S01,OFFmed_OFFstim,20260131_202947,2026-01-31 20:30:00.244648,1,1,probe,TRIAL_END,21,2026-01-31 20:32:16.726754,136.481615,0.001922,,,,,,keyboard,,{},1,0.008325,120.119110,1
Sergio_G01_CNS-LLF5HT7Y0,S01,OFFmed_OFFstim,20260131_202947,2026-01-31 20:30:00.244648,1,1,probe,BLOCK_END,11,2026-01-31 20:32:16.728664,136.483538,0.189663,,,,,,keyboard,,{},1,0.008325,120.119110,1
Sergio_G01_CNS-LLF5HT7Y0,S01,OFFmed_OFFstim,20260131_202947,2026-01-31 20:30:00.244648,1,1,probe,SESSION_END,3,2026-01-31 20:32:16.918217,136.673200,NaN,,,,,,keyboard,,{},1,0.008325,120.119110,1
