file_version,subject,condition,session,task_start_time,block,trial,phase,event_name,event_code,wall_clock,t_rel_sec,duration_to_next,rt,value_shown,entered_value,correct,key_name,device,note,json,screen_index,ifi,refresh_hz,pd_used
Sergio_G01_CNS-LLF5HT7Y0,cpeeg02,offmed_offstim,20260323_155934,2026-03-23 16:01:20.650854,NaN,NaN,,MIC_NOISEFLOOR,6,2026-03-23 16:01:23.093071,2.441539,4.169559,,,,,,keyboard,,{},2,NaN,NaN,1
Sergio_G01_CNS-LLF5HT7Y0,cpeeg02,offmed_offstim,20260323_155934,2026-03-23 16:01:20.650854,NaN,NaN,,MIC_REC_SPEECH,7,2026-03-23 16:01:27.262087,6.611098,6.681431,,,,,,keyboard,,{},2,NaN,NaN,1
Sergio_G01_CNS-LLF5HT7Y0,cpeeg02,offmed_offstim,20260323_155934,2026-03-23 16:01:20.650854,NaN,NaN,,SESSION_START,1,2026-03-23 16:01:45.615038,24.963881,0.001068,,,,,,keyboard,,{},2,0.008333,120.000000,1
Sergio_G01_CNS-LLF5HT7Y0,cpeeg02,offmed_offstim,20260323_155934,2026-03-23 16:01:20.650854,NaN,NaN,,BLOCK_START,10,2026-03-23 16:01:45.615715,24.964949,0.051837,,,,,,keyboard,,{},2,0.008333,120.000000,1
Sergio_G01_CNS-LLF5HT7Y0,cpeeg02,offmed_offstim,20260323_155934,2026-03-23 16:01:20.650854,NaN,0,reading,START_PAGE_ON,4,2026-03-23 16:01:45.709228,25.016786,0.052453,,,,,,keyboard,,"{""pd_used"":0}",2,0.008333,120.000000,1
Sergio_G01_CNS-LLF5HT7Y0,cpeeg02,offmed_offstim,20260323_155934,2026-03-23 16:01:20.650854,NaN,0,reading,START_PAGE_ON,4,2026-03-23 16:01:45.709228,25.016786,6.028524,,,,,,keyboard,,"{""pd_used"":0}",2,0.008333,120.000000,1
Sergio_G01_CNS-LLF5HT7Y0,cpeeg02,offmed_offstim,20260323_155934,2026-03-23 16:01:20.650854,NaN,0,reading,START_PAGE_ON,4,2026-03-23 16:01:45.709228,25.016786,6.401897,,,,,,keyboard,,"{""pd_used"":0}",2,0.008333,120.000000,1
Sergio_G01_CNS-LLF5HT7Y0,cpeeg02,offmed_offstim,20260323_155934,2026-03-23 16:01:20.650854,NaN,0,reading,READING_START,23,2026-03-23 16:01:52.069767,31.418684,0.066955,,,,,,keyboard,,{},2,0.008333,120.000000,1
Sergio_G01_CNS-LLF5HT7Y0,cpeeg02,offmed_offstim,20260323_155934,2026-03-23 16:01:20.650854,NaN,0,reading,DIGIT_READ1_ON,101,2026-03-23 16:01:52.178214,31.485639,1.947204,,5,,,,keyboard,digit#1 shown,"{""value"":5,""note"":""digit#1 shown"",""pd_used"":1}",2,0.008333,120.000000,1
Sergio_G01_CNS-LLF5HT7Y0,cpeeg02,offmed_offstim,20260323_155934,2026-03-23 16:01:20.650854,NaN,0,reading,PROBE_COUNT_OK_1,71,2026-03-23 16:01:54.408446,33.432843,0.375320,8.425733,slot#1,NaN,,,keyboard,probe_digit#1,"{""value"":""slot#1"",""entered"":null,""rt"":8.42573259999699,""note"":""probe_digit#1""}",2,0.008333,120.000000,1
Sergio_G01_CNS-LLF5HT7Y0,cpeeg02,offmed_offstim,20260323_155934,2026-03-23 16:01:20.650854,NaN,0,reading,DIGIT_READ1_OFF,116,2026-03-23 16:01:54.502649,33.808163,0.000000,,5,,,,keyboard,digit#1 off,"{""value"":5,""note"":""digit#1 off"",""pd_used"":0}",2,0.008333,120.000000,1
Sergio_G01_CNS-LLF5HT7Y0,cpeeg02,offmed_offstim,20260323_155934,2026-03-23 16:01:20.650854,NaN,0,reading,POSTREAD_FIX1_ON,201,2026-03-23 16:01:54.503814,33.808163,1.854719,,,,,,keyboard,after digit#1,"{""note"":""after digit#1""}",2,0.008333,120.000000,1
Sergio_G01_CNS-LLF5HT7Y0,cpeeg02,offmed_offstim,20260323_155934,2026-03-23 16:01:20.650854,NaN,0,reading,POSTREAD_FIX1_OFF,216,2026-03-23 16:01:56.356108,35.662883,0.059515,,,,,,keyboard,after digit#1,"{""note"":""after digit#1"",""pd_used"":0}",2,0.008333,120.000000,1
Sergio_G01_CNS-LLF5HT7Y0,cpeeg02,offmed_offstim,20260323_155934,2026-03-23 16:01:20.650854,NaN,0,reading,DIGIT_READ2_ON,102,2026-03-23 16:01:56.415597,35.722397,0.924220,,2,,,,keyboard,digit#2 shown,"{""value"":2,""note"":""digit#2 shown"",""pd_used"":1}",2,0.008333,120.000000,1
Sergio_G01_CNS-LLF5HT7Y0,cpeeg02,offmed_offstim,20260323_155934,2026-03-23 16:01:20.650854,NaN,0,reading,PROBE_COUNT_OK_2,71,2026-03-23 16:01:57.779778,36.646617,0.530752,11.639507,slot#2,NaN,,,keyboard,probe_digit#2,"{""value"":""slot#2"",""entered"":null,""rt"":11.63950709999699,""note"":""probe_digit#2""}",2,0.008333,120.000000,1
Sergio_G01_CNS-LLF5HT7Y0,cpeeg02,offmed_offstim,20260323_155934,2026-03-23 16:01:20.650854,NaN,0,reading,DIGIT_READ2_OFF,117,2026-03-23 16:01:57.874019,37.177369,0.000000,,2,,,,keyboard,digit#2 off,"{""value"":2,""note"":""digit#2 off"",""pd_used"":0}",2,0.008333,120.000000,1
Sergio_G01_CNS-LLF5HT7Y0,cpeeg02,offmed_offstim,20260323_155934,2026-03-23 16:01:20.650854,NaN,0,reading,POSTREAD_FIX2_ON,202,2026-03-23 16:01:57.874851,37.177369,1.667772,,,,,,keyboard,after digit#2,"{""note"":""after digit#2""}",2,0.008333,120.000000,1
Sergio_G01_CNS-LLF5HT7Y0,cpeeg02,offmed_offstim,20260323_155934,2026-03-23 16:01:20.650854,NaN,0,reading,POSTREAD_FIX2_OFF,217,2026-03-23 16:01:59.538576,38.845141,0.059065,,,,,,keyboard,after digit#2,"{""note"":""after digit#2"",""pd_used"":0}",2,0.008333,120.000000,1
Sergio_G01_CNS-LLF5HT7Y0,cpeeg02,offmed_offstim,20260323_155934,2026-03-23 16:01:20.650854,NaN,0,reading,DIGIT_READ3_ON,103,2026-03-23 16:01:59.597858,38.904206,1.359907,,5,,,,keyboard,digit#3 shown,"{""value"":5,""note"":""digit#3 shown"",""pd_used"":1}",2,0.008333,120.000000,1
Sergio_G01_CNS-LLF5HT7Y0,cpeeg02,offmed_offstim,20260323_155934,2026-03-23 16:01:20.650854,NaN,0,reading,PROBE_COUNT_OK_3,71,2026-03-23 16:02:01.506428,40.264113,0.640729,15.257003,slot#3,NaN,,,keyboard,probe_digit#3,"{""value"":""slot#3"",""entered"":null,""rt"":15.257003099999565,""note"":""probe_digit#3""}",2,0.008333,120.000000,1
Sergio_G01_CNS-LLF5HT7Y0,cpeeg02,offmed_offstim,20260323_155934,2026-03-23 16:01:20.650854,NaN,0,reading,DIGIT_READ3_OFF,118,2026-03-23 16:02:01.601119,40.904843,0.000000,,5,,,,keyboard,digit#3 off,"{""value"":5,""note"":""digit#3 off"",""pd_used"":0}",2,0.008333,120.000000,1
Sergio_G01_CNS-LLF5HT7Y0,cpeeg02,offmed_offstim,20260323_155934,2026-03-23 16:01:20.650854,NaN,0,reading,POSTREAD_FIX3_ON,203,2026-03-23 16:02:01.601868,40.904843,1.662286,,,,,,keyboard,after digit#3,"{""note"":""after digit#3""}",2,0.008333,120.000000,1
Sergio_G01_CNS-LLF5HT7Y0,cpeeg02,offmed_offstim,20260323_155934,2026-03-23 16:01:20.650854,NaN,0,reading,POSTREAD_FIX3_OFF,218,2026-03-23 16:02:03.261325,42.567128,0.059780,,,,,,keyboard,after digit#3,"{""note"":""after digit#3"",""pd_used"":0}",2,0.008333,120.000000,1
Sergio_G01_CNS-LLF5HT7Y0,cpeeg02,offmed_offstim,20260323_155934,2026-03-23 16:01:20.650854,NaN,0,reading,DIGIT_READ4_ON,104,2026-03-23 16:02:03.320432,42.626908,4.138055,,4,,,,keyboard,digit#4 shown,"{""value"":4,""note"":""digit#4 shown"",""pd_used"":1}",2,0.008333,120.000000,1
Sergio_G01_CNS-LLF5HT7Y0,cpeeg02,offmed_offstim,20260323_155934,2026-03-23 16:01:20.650854,NaN,0,reading,PROBE_COUNT_OK_4,71,2026-03-23 16:02:08.099745,46.764963,0.733302,21.757853,slot#4,NaN,,,keyboard,probe_digit#4,"{""value"":""slot#4"",""entered"":null,""rt"":21.75785309999992,""note"":""probe_digit#4""}",2,0.008333,120.000000,1
Sergio_G01_CNS-LLF5HT7Y0,cpeeg02,offmed_offstim,20260323_155934,2026-03-23 16:01:20.650854,NaN,0,reading,DIGIT_READ4_OFF,119,2026-03-23 16:02:08.194348,47.498266,0.000000,,4,,,,keyboard,digit#4 off,"{""value"":4,""note"":""digit#4 off"",""pd_used"":0}",2,0.008333,120.000000,1
Sergio_G01_CNS-LLF5HT7Y0,cpeeg02,offmed_offstim,20260323_155934,2026-03-23 16:01:20.650854,NaN,0,reading,POSTREAD_FIX4_ON,204,2026-03-23 16:02:08.195254,47.498266,1.729587,,,,,,keyboard,after digit#4,"{""note"":""after digit#4""}",2,0.008333,120.000000,1
Sergio_G01_CNS-LLF5HT7Y0,cpeeg02,offmed_offstim,20260323_155934,2026-03-23 16:01:20.650854,NaN,0,reading,POSTREAD_FIX4_OFF,219,2026-03-23 16:02:09.922115,49.227853,0.062381,,,,,,keyboard,after digit#4,"{""note"":""after digit#4"",""pd_used"":0}",2,0.008333,120.000000,1
Sergio_G01_CNS-LLF5HT7Y0,cpeeg02,offmed_offstim,20260323_155934,2026-03-23 16:01:20.650854,NaN,0,reading,DIGIT_READ5_ON,105,2026-03-23 16:02:09.984695,49.290234,1.325730,,4,,,,keyboard,digit#5 shown,"{""value"":4,""note"":""digit#5 shown"",""pd_used"":1}",2,0.008333,120.000000,1
Sergio_G01_CNS-LLF5HT7Y0,cpeeg02,offmed_offstim,20260323_155934,2026-03-23 16:01:20.650854,NaN,0,reading,PROBE_COUNT_OK_5,71,2026-03-23 16:02:11.851435,50.615964,0.634568,25.608854,slot#5,NaN,,,keyboard,probe_digit#5,"{""value"":""slot#5"",""entered"":null,""rt"":25.608853999998246,""note"":""probe_digit#5""}",2,0.008333,120.000000,1
Sergio_G01_CNS-LLF5HT7Y0,cpeeg02,offmed_offstim,20260323_155934,2026-03-23 16:01:20.650854,NaN,0,reading,DIGIT_READ5_OFF,120,2026-03-23 16:02:11.948596,51.250532,0.000000,,4,,,,keyboard,digit#5 off,"{""value"":4,""note"":""digit#5 off"",""pd_used"":0}",2,0.008333,120.000000,1
Sergio_G01_CNS-LLF5HT7Y0,cpeeg02,offmed_offstim,20260323_155934,2026-03-23 16:01:20.650854,NaN,0,reading,POSTREAD_FIX5_ON,205,2026-03-23 16:02:11.950991,51.250532,1.746423,,,,,,keyboard,after digit#5,"{""note"":""after digit#5""}",2,0.008333,120.000000,1
Sergio_G01_CNS-LLF5HT7Y0,cpeeg02,offmed_offstim,20260323_155934,2026-03-23 16:01:20.650854,NaN,0,reading,POSTREAD_FIX5_OFF,220,2026-03-23 16:02:13.690795,52.996955,0.060211,,,,,,keyboard,after digit#5,"{""note"":""after digit#5"",""pd_used"":0}",2,0.008333,120.000000,1
Sergio_G01_CNS-LLF5HT7Y0,cpeeg02,offmed_offstim,20260323_155934,2026-03-23 16:01:20.650854,NaN,0,reading,DIGIT_READ6_ON,106,2026-03-23 16:02:13.751115,53.057166,2.048127,,4,,,,keyboard,digit#6 shown,"{""value"":4,""note"":""digit#6 shown"",""pd_used"":1}",2,0.008333,120.000000,1
Sergio_G01_CNS-LLF5HT7Y0,cpeeg02,offmed_offstim,20260323_155934,2026-03-23 16:01:20.650854,NaN,0,reading,PROBE_COUNT_OK_6,71,2026-03-23 16:02:16.308576,55.105293,0.601206,30.098182,slot#6,NaN,,,keyboard,probe_digit#6,"{""value"":""slot#6"",""entered"":null,""rt"":30.09818230000019,""note"":""probe_digit#6""}",2,0.008333,120.000000,1
Sergio_G01_CNS-LLF5HT7Y0,cpeeg02,offmed_offstim,20260323_155934,2026-03-23 16:01:20.650854,NaN,0,reading,DIGIT_READ6_OFF,121,2026-03-23 16:02:16.403089,55.706498,0.000000,,4,,,,keyboard,digit#6 off,"{""value"":4,""note"":""digit#6 off"",""pd_used"":0}",2,0.008333,120.000000,1
Sergio_G01_CNS-LLF5HT7Y0,cpeeg02,offmed_offstim,20260323_155934,2026-03-23 16:01:20.650854,NaN,0,reading,POSTREAD_FIX6_ON,206,2026-03-23 16:02:16.404840,55.706498,1.875936,,,,,,keyboard,after digit#6,"{""note"":""after digit#6""}",2,0.008333,120.000000,1
Sergio_G01_CNS-LLF5HT7Y0,cpeeg02,offmed_offstim,20260323_155934,2026-03-23 16:01:20.650854,NaN,0,reading,POSTREAD_FIX6_OFF,221,2026-03-23 16:02:18.275592,57.582434,0.059308,,,,,,keyboard,after digit#6,"{""note"":""after digit#6"",""pd_used"":0}",2,0.008333,120.000000,1
Sergio_G01_CNS-LLF5HT7Y0,cpeeg02,offmed_offstim,20260323_155934,2026-03-23 16:01:20.650854,NaN,0,reading,DIGIT_READ7_ON,107,2026-03-23 16:02:18.335333,57.641742,3.951856,,4,,,,keyboard,digit#7 shown,"{""value"":4,""note"":""digit#7 shown"",""pd_used"":1}",2,0.008333,120.000000,1
Sergio_G01_CNS-LLF5HT7Y0,cpeeg02,offmed_offstim,20260323_155934,2026-03-23 16:01:20.650854,NaN,0,reading,PROBE_COUNT_OK_7,71,2026-03-23 16:02:22.758969,61.593597,0.563743,36.586487,slot#7,NaN,,,keyboard,probe_digit#7,"{""value"":""slot#7"",""entered"":null,""rt"":36.586487199998373,""note"":""probe_digit#7""}",2,0.008333,120.000000,1
Sergio_G01_CNS-LLF5HT7Y0,cpeeg02,offmed_offstim,20260323_155934,2026-03-23 16:01:20.650854,NaN,0,reading,DIGIT_READ7_OFF,122,2026-03-23 16:02:22.853656,62.157341,0.000000,,4,,,,keyboard,digit#7 off,"{""value"":4,""note"":""digit#7 off"",""pd_used"":0}",2,0.008333,120.000000,1
Sergio_G01_CNS-LLF5HT7Y0,cpeeg02,offmed_offstim,20260323_155934,2026-03-23 16:01:20.650854,NaN,0,reading,POSTREAD_FIX7_ON,207,2026-03-23 16:02:22.854550,62.157341,1.692638,,,,,,keyboard,after digit#7,"{""note"":""after digit#7""}",2,0.008333,120.000000,1
Sergio_G01_CNS-LLF5HT7Y0,cpeeg02,offmed_offstim,20260323_155934,2026-03-23 16:01:20.650854,NaN,0,reading,POSTREAD_FIX7_OFF,222,2026-03-23 16:02:24.544153,63.849979,0.060745,,,,,,keyboard,after digit#7,"{""note"":""after digit#7"",""pd_used"":0}",2,0.008333,120.000000,1
Sergio_G01_CNS-LLF5HT7Y0,cpeeg02,offmed_offstim,20260323_155934,2026-03-23 16:01:20.650854,NaN,0,reading,DIGIT_READ8_ON,108,2026-03-23 16:02:24.605167,63.910724,2.103363,,5,,,,keyboard,digit#8 shown,"{""value"":5,""note"":""digit#8 shown"",""pd_used"":1}",2,0.008333,120.000000,1
Sergio_G01_CNS-LLF5HT7Y0,cpeeg02,offmed_offstim,20260323_155934,2026-03-23 16:01:20.650854,NaN,0,reading,PROBE_COUNT_OK_8,71,2026-03-23 16:02:27.113964,66.014087,0.501515,41.006977,slot#8,NaN,,,keyboard,probe_digit#8,"{""value"":""slot#8"",""entered"":null,""rt"":41.00697659999787,""note"":""probe_digit#8""}",2,0.008333,120.000000,1
Sergio_G01_CNS-LLF5HT7Y0,cpeeg02,offmed_offstim,20260323_155934,2026-03-23 16:01:20.650854,NaN,0,reading,DIGIT_READ8_OFF,123,2026-03-23 16:02:27.213721,66.515602,0.000000,,5,,,,keyboard,digit#8 off,"{""value"":5,""note"":""digit#8 off"",""pd_used"":0}",2,0.008333,120.000000,1
Sergio_G01_CNS-LLF5HT7Y0,cpeeg02,offmed_offstim,20260323_155934,2026-03-23 16:01:20.650854,NaN,0,reading,POSTREAD_FIX8_ON,208,2026-03-23 16:02:27.216164,66.515602,1.842694,,,,,,keyboard,after digit#8,"{""note"":""after digit#8""}",2,0.008333,120.000000,1
Sergio_G01_CNS-LLF5HT7Y0,cpeeg02,offmed_offstim,20260323_155934,2026-03-23 16:01:20.650854,NaN,0,reading,POSTREAD_FIX8_OFF,223,2026-03-23 16:02:29.056473,68.358295,0.065863,,,,,,keyboard,after digit#8,"{""note"":""after digit#8"",""pd_used"":0}",2,0.008333,120.000000,1
Sergio_G01_CNS-LLF5HT7Y0,cpeeg02,offmed_offstim,20260323_155934,2026-03-23 16:01:20.650854,NaN,0,reading,DIGIT_READ9_ON,109,2026-03-23 16:02:29.119440,68.424158,5.694233,,9,,,,keyboard,digit#9 shown,"{""value"":9,""note"":""digit#9 shown"",""pd_used"":1}",2,0.008333,120.000000,1
Sergio_G01_CNS-LLF5HT7Y0,cpeeg02,offmed_offstim,20260323_155934,2026-03-23 16:01:20.650854,NaN,0,reading,PROBE_COUNT_OK_9,71,2026-03-23 16:02:35.545612,74.118392,0.828543,49.111282,slot#9,NaN,,,keyboard,probe_digit#9,"{""value"":""slot#9"",""entered"":null,""rt"":49.11128159999862,""note"":""probe_digit#9""}",2,0.008333,120.000000,1
Sergio_G01_CNS-LLF5HT7Y0,cpeeg02,offmed_offstim,20260323_155934,2026-03-23 16:01:20.650854,NaN,0,reading,DIGIT_READ9_OFF,124,2026-03-23 16:02:35.643265,74.946935,0.000000,,9,,,,keyboard,digit#9 off,"{""value"":9,""note"":""digit#9 off"",""pd_used"":0}",2,0.008333,120.000000,1
Sergio_G01_CNS-LLF5HT7Y0,cpeeg02,offmed_offstim,20260323_155934,2026-03-23 16:01:20.650854,NaN,0,reading,POSTREAD_FIX9_ON,209,2026-03-23 16:02:35.645078,74.946935,1.871413,,,,,,keyboard,after digit#9,"{""note"":""after digit#9""}",2,0.008333,120.000000,1
Sergio_G01_CNS-LLF5HT7Y0,cpeeg02,offmed_offstim,20260323_155934,2026-03-23 16:01:20.650854,NaN,0,reading,POSTREAD_FIX9_OFF,224,2026-03-23 16:02:37.513844,76.818348,0.063412,,,,,,keyboard,after digit#9,"{""note"":""after digit#9"",""pd_used"":0}",2,0.008333,120.000000,1
Sergio_G01_CNS-LLF5HT7Y0,cpeeg02,offmed_offstim,20260323_155934,2026-03-23 16:01:20.650854,NaN,0,reading,DIGIT_READ10_ON,110,2026-03-23 16:02:37.575516,76.881761,1.389719,,6,,,,keyboard,digit#10 shown,"{""value"":6,""note"":""digit#10 shown"",""pd_used"":1}",2,0.008333,120.000000,1
Sergio_G01_CNS-LLF5HT7Y0,cpeeg02,offmed_offstim,20260323_155934,2026-03-23 16:01:20.650854,NaN,0,reading,PROBE_COUNT_OK_10,71,2026-03-23 16:02:39.382358,78.271480,0.511497,53.264370,slot#10,NaN,,,keyboard,probe_digit#10,"{""value"":""slot#10"",""entered"":null,""rt"":53.2643696999985,""note"":""probe_digit#10""}",2,0.008333,120.000000,1
Sergio_G01_CNS-LLF5HT7Y0,cpeeg02,offmed_offstim,20260323_155934,2026-03-23 16:01:20.650854,NaN,0,reading,DIGIT_READ10_OFF,125,2026-03-23 16:02:39.481545,78.782977,0.000000,,6,,,,keyboard,digit#10 off,"{""value"":6,""note"":""digit#10 off"",""pd_used"":0}",2,0.008333,120.000000,1
Sergio_G01_CNS-LLF5HT7Y0,cpeeg02,offmed_offstim,20260323_155934,2026-03-23 16:01:20.650854,NaN,0,reading,POSTREAD_FIX10_ON,210,2026-03-23 16:02:39.483907,78.782977,1.888981,,,,,,keyboard,after digit#10,"{""note"":""after digit#10""}",2,0.008333,120.000000,1
Sergio_G01_CNS-LLF5HT7Y0,cpeeg02,offmed_offstim,20260323_155934,2026-03-23 16:01:20.650854,NaN,0,reading,POSTREAD_FIX10_OFF,225,2026-03-23 16:02:41.367340,80.671958,0.062553,,,,,,keyboard,after digit#10,"{""note"":""after digit#10"",""pd_used"":0}",2,0.008333,120.000000,1
Sergio_G01_CNS-LLF5HT7Y0,cpeeg02,offmed_offstim,20260323_155934,2026-03-23 16:01:20.650854,NaN,0,reading,DIGIT_READ11_ON,111,2026-03-23 16:02:41.430310,80.734511,1.147210,,8,,,,keyboard,digit#11 shown,"{""value"":8,""note"":""digit#11 shown"",""pd_used"":1}",2,0.008333,120.000000,1
Sergio_G01_CNS-LLF5HT7Y0,cpeeg02,offmed_offstim,20260323_155934,2026-03-23 16:01:20.650854,NaN,0,reading,PROBE_COUNT_OK_11,71,2026-03-23 16:02:42.895306,81.881722,0.412287,56.874611,slot#11,NaN,,,keyboard,probe_digit#11,"{""value"":""slot#11"",""entered"":null,""rt"":56.874611399998685,""note"":""probe_digit#11""}",2,0.008333,120.000000,1
Sergio_G01_CNS-LLF5HT7Y0,cpeeg02,offmed_offstim,20260323_155934,2026-03-23 16:01:20.650854,NaN,0,reading,DIGIT_READ11_OFF,126,2026-03-23 16:02:42.993634,82.294009,0.000000,,8,,,,keyboard,digit#11 off,"{""value"":8,""note"":""digit#11 off"",""pd_used"":0}",2,0.008333,120.000000,1
Sergio_G01_CNS-LLF5HT7Y0,cpeeg02,offmed_offstim,20260323_155934,2026-03-23 16:01:20.650854,NaN,0,reading,POSTREAD_FIX11_ON,211,2026-03-23 16:02:42.996081,82.294009,1.866515,,,,,,keyboard,after digit#11,"{""note"":""after digit#11""}",2,0.008333,120.000000,1
Sergio_G01_CNS-LLF5HT7Y0,cpeeg02,offmed_offstim,20260323_155934,2026-03-23 16:01:20.650854,NaN,0,reading,POSTREAD_FIX11_OFF,226,2026-03-23 16:02:44.854541,84.160524,0.059987,,,,,,keyboard,after digit#11,"{""note"":""after digit#11"",""pd_used"":0}",2,0.008333,120.000000,1
Sergio_G01_CNS-LLF5HT7Y0,cpeeg02,offmed_offstim,20260323_155934,2026-03-23 16:01:20.650854,NaN,0,reading,DIGIT_READ12_ON,112,2026-03-23 16:02:44.913895,84.220511,1.133911,,2,,,,keyboard,digit#12 shown,"{""value"":2,""note"":""digit#12 shown"",""pd_used"":1}",2,0.008333,120.000000,1
Sergio_G01_CNS-LLF5HT7Y0,cpeeg02,offmed_offstim,20260323_155934,2026-03-23 16:01:20.650854,NaN,0,reading,PROBE_COUNT_OK_12,71,2026-03-23 16:02:46.454774,85.354421,0.501309,60.347311,slot#12,NaN,,,keyboard,probe_digit#12,"{""value"":""slot#12"",""entered"":null,""rt"":60.347311099998478,""note"":""probe_digit#12""}",2,0.008333,120.000000,1
Sergio_G01_CNS-LLF5HT7Y0,cpeeg02,offmed_offstim,20260323_155934,2026-03-23 16:01:20.650854,NaN,0,reading,DIGIT_READ12_OFF,127,2026-03-23 16:02:46.554130,85.855730,0.000000,,2,,,,keyboard,digit#12 off,"{""value"":2,""note"":""digit#12 off"",""pd_used"":0}",2,0.008333,120.000000,1
Sergio_G01_CNS-LLF5HT7Y0,cpeeg02,offmed_offstim,20260323_155934,2026-03-23 16:01:20.650854,NaN,0,reading,POSTREAD_FIX12_ON,212,2026-03-23 16:02:46.556354,85.855730,1.908491,,,,,,keyboard,after digit#12,"{""note"":""after digit#12""}",2,0.008333,120.000000,1
Sergio_G01_CNS-LLF5HT7Y0,cpeeg02,offmed_offstim,20260323_155934,2026-03-23 16:01:20.650854,NaN,0,reading,POSTREAD_FIX12_OFF,227,2026-03-23 16:02:48.461300,87.764222,0.064034,,,,,,keyboard,after digit#12,"{""note"":""after digit#12"",""pd_used"":0}",2,0.008333,120.000000,1
Sergio_G01_CNS-LLF5HT7Y0,cpeeg02,offmed_offstim,20260323_155934,2026-03-23 16:01:20.650854,NaN,0,reading,DIGIT_READ13_ON,113,2026-03-23 16:02:48.523692,87.828256,1.152941,,7,,,,keyboard,digit#13 shown,"{""value"":7,""note"":""digit#13 shown"",""pd_used"":1}",2,0.008333,120.000000,1
Sergio_G01_CNS-LLF5HT7Y0,cpeeg02,offmed_offstim,20260323_155934,2026-03-23 16:01:20.650854,NaN,0,reading,PROBE_COUNT_OK_13,71,2026-03-23 16:02:49.974254,88.981197,0.393643,63.974087,slot#13,NaN,,,keyboard,probe_digit#13,"{""value"":""slot#13"",""entered"":null,""rt"":63.974086899997928,""note"":""probe_digit#13""}",2,0.008333,120.000000,1
Sergio_G01_CNS-LLF5HT7Y0,cpeeg02,offmed_offstim,20260323_155934,2026-03-23 16:01:20.650854,NaN,0,reading,DIGIT_READ13_OFF,128,2026-03-23 16:02:50.072030,89.374841,0.000000,,7,,,,keyboard,digit#13 off,"{""value"":7,""note"":""digit#13 off"",""pd_used"":0}",2,0.008333,120.000000,1
Sergio_G01_CNS-LLF5HT7Y0,cpeeg02,offmed_offstim,20260323_155934,2026-03-23 16:01:20.650854,NaN,0,reading,POSTREAD_FIX13_ON,213,2026-03-23 16:02:50.073737,89.374841,2.047609,,,,,,keyboard,after digit#13,"{""note"":""after digit#13""}",2,0.008333,120.000000,1
Sergio_G01_CNS-LLF5HT7Y0,cpeeg02,offmed_offstim,20260323_155934,2026-03-23 16:01:20.650854,NaN,0,reading,POSTREAD_FIX13_OFF,228,2026-03-23 16:02:52.118134,91.422449,0.062581,,,,,,keyboard,after digit#13,"{""note"":""after digit#13"",""pd_used"":0}",2,0.008333,120.000000,1
Sergio_G01_CNS-LLF5HT7Y0,cpeeg02,offmed_offstim,20260323_155934,2026-03-23 16:01:20.650854,NaN,0,reading,DIGIT_READ14_ON,114,2026-03-23 16:02:52.180715,91.485030,1.666256,,0,,,,keyboard,digit#14 shown,"{""value"":0,""note"":""digit#14 shown"",""pd_used"":1}",2,0.008333,120.000000,1
Sergio_G01_CNS-LLF5HT7Y0,cpeeg02,offmed_offstim,20260323_155934,2026-03-23 16:01:20.650854,NaN,0,reading,PROBE_COUNT_OK_14,71,2026-03-23 16:02:54.195189,93.151286,0.445431,68.144175,slot#14,NaN,,,keyboard,probe_digit#14,"{""value"":""slot#14"",""entered"":null,""rt"":68.144175399997039,""note"":""probe_digit#14""}",2,0.008333,120.000000,1
Sergio_G01_CNS-LLF5HT7Y0,cpeeg02,offmed_offstim,20260323_155934,2026-03-23 16:01:20.650854,NaN,0,reading,DIGIT_READ14_OFF,129,2026-03-23 16:02:54.294424,93.596717,0.000000,,0,,,,keyboard,digit#14 off,"{""value"":0,""note"":""digit#14 off"",""pd_used"":0}",2,0.008333,120.000000,1
Sergio_G01_CNS-LLF5HT7Y0,cpeeg02,offmed_offstim,20260323_155934,2026-03-23 16:01:20.650854,NaN,0,reading,POSTREAD_FIX14_ON,214,2026-03-23 16:02:54.296755,93.596717,1.635840,,,,,,keyboard,after digit#14,"{""note"":""after digit#14""}",2,0.008333,120.000000,1
Sergio_G01_CNS-LLF5HT7Y0,cpeeg02,offmed_offstim,20260323_155934,2026-03-23 16:01:20.650854,NaN,0,reading,POSTREAD_FIX14_OFF,229,2026-03-23 16:02:55.927537,95.232557,0.060713,,,,,,keyboard,after digit#14,"{""note"":""after digit#14"",""pd_used"":0}",2,0.008333,120.000000,1
Sergio_G01_CNS-LLF5HT7Y0,cpeeg02,offmed_offstim,20260323_155934,2026-03-23 16:01:20.650854,NaN,0,reading,DIGIT_READ15_ON,115,2026-03-23 16:02:55.989101,95.293270,1.200180,,8,,,,keyboard,digit#15 shown,"{""value"":8,""note"":""digit#15 shown"",""pd_used"":1}",2,0.008333,120.000000,1
Sergio_G01_CNS-LLF5HT7Y0,cpeeg02,offmed_offstim,20260323_155934,2026-03-23 16:01:20.650854,NaN,0,reading,PROBE_COUNT_OK_15,71,2026-03-23 16:02:57.623252,96.493451,0.533632,71.486340,slot#15,NaN,,,keyboard,probe_digit#15,"{""value"":""slot#15"",""entered"":null,""rt"":71.486340299998119,""note"":""probe_digit#15""}",2,0.008333,120.000000,1
Sergio_G01_CNS-LLF5HT7Y0,cpeeg02,offmed_offstim,20260323_155934,2026-03-23 16:01:20.650854,NaN,0,reading,DIGIT_READ15_OFF,130,2026-03-23 16:02:57.722868,97.027083,0.000000,,8,,,,keyboard,digit#15 off,"{""value"":8,""note"":""digit#15 off"",""pd_used"":0}",2,0.008333,120.000000,1
Sergio_G01_CNS-LLF5HT7Y0,cpeeg02,offmed_offstim,20260323_155934,2026-03-23 16:01:20.650854,NaN,0,reading,POSTREAD_FIX15_ON,215,2026-03-23 16:02:57.724855,97.027083,3.520038,,,,,,keyboard,after digit#15,"{""note"":""after digit#15""}",2,0.008333,120.000000,1
Sergio_G01_CNS-LLF5HT7Y0,cpeeg02,offmed_offstim,20260323_155934,2026-03-23 16:01:20.650854,NaN,0,reading,POSTREAD_FIX15_OFF,230,2026-03-23 16:03:01.243997,100.547121,0.054345,,,,,,keyboard,after digit#15,"{""note"":""after digit#15"",""pd_used"":0}",2,0.008333,120.000000,1
Sergio_G01_CNS-LLF5HT7Y0,cpeeg02,offmed_offstim,20260323_155934,2026-03-23 16:01:20.650854,NaN,0,reading,READING_END,24,2026-03-23 16:03:01.252940,100.601466,0.055364,,,,,,keyboard,,{},2,0.008333,120.000000,1
Sergio_G01_CNS-LLF5HT7Y0,cpeeg02,offmed_offstim,20260323_155934,2026-03-23 16:01:20.650854,NaN,0,reading,START_PAGE_ON,4,2026-03-23 16:03:01.352396,100.656831,0.060279,,,,,,keyboard,,"{""pd_used"":0}",2,0.008333,120.000000,1
Sergio_G01_CNS-LLF5HT7Y0,cpeeg02,offmed_offstim,20260323_155934,2026-03-23 16:01:20.650854,NaN,0,reading,START_PAGE_ON,4,2026-03-23 16:03:01.352396,100.656831,11.796512,,,,,,keyboard,,"{""pd_used"":0}",2,0.008333,120.000000,1
Sergio_G01_CNS-LLF5HT7Y0,cpeeg02,offmed_offstim,20260323_155934,2026-03-23 16:01:20.650854,NaN,0,reading,START_PAGE_ON,4,2026-03-23 16:03:01.352396,100.656831,12.173264,,,,,,keyboard,,"{""pd_used"":0}",2,0.008333,120.000000,1
Sergio_G01_CNS-LLF5HT7Y0,cpeeg02,offmed_offstim,20260323_155934,2026-03-23 16:01:20.650854,NaN,1,reading,TRIAL_CHANGE,22,2026-03-23 16:03:13.481907,112.830094,0.002567,,,,,,keyboard,trial transition,"{""note"":""trial transition""}",2,0.008333,120.000000,1
Sergio_G01_CNS-LLF5HT7Y0,cpeeg02,offmed_offstim,20260323_155934,2026-03-23 16:01:20.650854,NaN,1,reading,TRIAL_START,20,2026-03-23 16:03:13.484090,112.832661,0.060448,,,,,,keyboard,,{},2,0.008333,120.000000,1
Sergio_G01_CNS-LLF5HT7Y0,cpeeg02,offmed_offstim,20260323_155934,2026-03-23 16:01:20.650854,NaN,1,fix1,FIX1_ON,30,2026-03-23 16:03:13.587212,112.893109,3.184245,,,,,,keyboard,,"{""pd_used"":0}",2,0.008333,120.000000,1
Sergio_G01_CNS-LLF5HT7Y0,cpeeg02,offmed_offstim,20260323_155934,2026-03-23 16:01:20.650854,NaN,1,fix1,FIX1_OFF,31,2026-03-23 16:03:16.773498,116.077354,0.058173,,,,,,keyboard,,"{""pd_used"":0}",2,0.008333,120.000000,1
Sergio_G01_CNS-LLF5HT7Y0,cpeeg02,offmed_offstim,20260323_155934,2026-03-23 16:01:20.650854,NaN,1,digit,DIGIT1_ON,141,2026-03-23 16:03:16.831483,116.135527,0.557931,,8,,,,keyboard,digit#1 shown,"{""value"":8,""note"":""digit#1 shown"",""pd_used"":1}",2,0.008333,120.000000,1
Sergio_G01_CNS-LLF5HT7Y0,cpeeg02,offmed_offstim,20260323_155934,2026-03-23 16:01:20.650854,NaN,1,digit,DIGIT1_OFF,146,2026-03-23 16:03:17.389399,116.693458,0.000000,,8,,,,keyboard,digit#1 off,"{""value"":8,""note"":""digit#1 off"",""pd_used"":0}",2,0.008333,120.000000,1
Sergio_G01_CNS-LLF5HT7Y0,cpeeg02,offmed_offstim,20260323_155934,2026-03-23 16:01:20.650854,NaN,1,digit,POSTDIG_FIX1_ON,151,2026-03-23 16:03:17.393030,116.693458,1.638122,,,,,,keyboard,after digit#1,"{""note"":""after digit#1""}",2,0.008333,120.000000,1
Sergio_G01_CNS-LLF5HT7Y0,cpeeg02,offmed_offstim,20260323_155934,2026-03-23 16:01:20.650854,NaN,1,digit,POSTDIG_FIX1_OFF,156,2026-03-23 16:03:19.025616,118.331579,0.053697,,,,,,keyboard,after digit#1,"{""note"":""after digit#1"",""pd_used"":0}",2,0.008333,120.000000,1
Sergio_G01_CNS-LLF5HT7Y0,cpeeg02,offmed_offstim,20260323_155934,2026-03-23 16:01:20.650854,NaN,1,digit,DIGIT2_ON,142,2026-03-23 16:03:19.078894,118.385276,0.553690,,0,,,,keyboard,digit#2 shown,"{""value"":0,""note"":""digit#2 shown"",""pd_used"":1}",2,0.008333,120.000000,1
Sergio_G01_CNS-LLF5HT7Y0,cpeeg02,offmed_offstim,20260323_155934,2026-03-23 16:01:20.650854,NaN,1,digit,DIGIT2_OFF,147,2026-03-23 16:03:19.632388,118.938966,0.000000,,0,,,,keyboard,digit#2 off,"{""value"":0,""note"":""digit#2 off"",""pd_used"":0}",2,0.008333,120.000000,1
Sergio_G01_CNS-LLF5HT7Y0,cpeeg02,offmed_offstim,20260323_155934,2026-03-23 16:01:20.650854,NaN,1,digit,POSTDIG_FIX2_ON,152,2026-03-23 16:03:19.633810,118.938966,1.677556,,,,,,keyboard,after digit#2,"{""note"":""after digit#2""}",2,0.008333,120.000000,1
Sergio_G01_CNS-LLF5HT7Y0,cpeeg02,offmed_offstim,20260323_155934,2026-03-23 16:01:20.650854,NaN,1,digit,POSTDIG_FIX2_OFF,157,2026-03-23 16:03:21.312284,120.616522,0.056783,,,,,,keyboard,after digit#2,"{""note"":""after digit#2"",""pd_used"":0}",2,0.008333,120.000000,1
Sergio_G01_CNS-LLF5HT7Y0,cpeeg02,offmed_offstim,20260323_155934,2026-03-23 16:01:20.650854,NaN,1,digit,DIGIT3_ON,143,2026-03-23 16:03:21.368351,120.673305,0.555093,,4,,,,keyboard,digit#3 shown,"{""value"":4,""note"":""digit#3 shown"",""pd_used"":1}",2,0.008333,120.000000,1
Sergio_G01_CNS-LLF5HT7Y0,cpeeg02,offmed_offstim,20260323_155934,2026-03-23 16:01:20.650854,NaN,1,digit,DIGIT3_OFF,148,2026-03-23 16:03:21.924865,121.228397,0.000000,,4,,,,keyboard,digit#3 off,"{""value"":4,""note"":""digit#3 off"",""pd_used"":0}",2,0.008333,120.000000,1
Sergio_G01_CNS-LLF5HT7Y0,cpeeg02,offmed_offstim,20260323_155934,2026-03-23 16:01:20.650854,NaN,1,digit,POSTDIG_FIX3_ON,153,2026-03-23 16:03:21.927086,121.228397,1.946781,,,,,,keyboard,after digit#3,"{""note"":""after digit#3""}",2,0.008333,120.000000,1
Sergio_G01_CNS-LLF5HT7Y0,cpeeg02,offmed_offstim,20260323_155934,2026-03-23 16:01:20.650854,NaN,1,digit,POSTDIG_FIX3_OFF,158,2026-03-23 16:03:23.871082,123.175178,0.057371,,,,,,keyboard,after digit#3,"{""note"":""after digit#3"",""pd_used"":0}",2,0.008333,120.000000,1
Sergio_G01_CNS-LLF5HT7Y0,cpeeg02,offmed_offstim,20260323_155934,2026-03-23 16:01:20.650854,NaN,1,digit,DIGIT4_ON,144,2026-03-23 16:03:23.928034,123.232549,0.555896,,8,,,,keyboard,digit#4 shown,"{""value"":8,""note"":""digit#4 shown"",""pd_used"":1}",2,0.008333,120.000000,1
Sergio_G01_CNS-LLF5HT7Y0,cpeeg02,offmed_offstim,20260323_155934,2026-03-23 16:01:20.650854,NaN,1,digit,DIGIT4_OFF,149,2026-03-23 16:03:24.484101,123.788445,0.000000,,8,,,,keyboard,digit#4 off,"{""value"":8,""note"":""digit#4 off"",""pd_used"":0}",2,0.008333,120.000000,1
Sergio_G01_CNS-LLF5HT7Y0,cpeeg02,offmed_offstim,20260323_155934,2026-03-23 16:01:20.650854,NaN,1,digit,POSTDIG_FIX4_ON,154,2026-03-23 16:03:24.486916,123.788445,1.562200,,,,,,keyboard,after digit#4,"{""note"":""after digit#4""}",2,0.008333,120.000000,1
Sergio_G01_CNS-LLF5HT7Y0,cpeeg02,offmed_offstim,20260323_155934,2026-03-23 16:01:20.650854,NaN,1,digit,POSTDIG_FIX4_OFF,159,2026-03-23 16:03:26.046287,125.350645,0.056677,,,,,,keyboard,after digit#4,"{""note"":""after digit#4"",""pd_used"":0}",2,0.008333,120.000000,1
Sergio_G01_CNS-LLF5HT7Y0,cpeeg02,offmed_offstim,20260323_155934,2026-03-23 16:01:20.650854,NaN,1,digit,DIGIT5_ON,145,2026-03-23 16:03:26.102550,125.407321,0.555824,,4,,,,keyboard,digit#5 shown,"{""value"":4,""note"":""digit#5 shown"",""pd_used"":1}",2,0.008333,120.000000,1
Sergio_G01_CNS-LLF5HT7Y0,cpeeg02,offmed_offstim,20260323_155934,2026-03-23 16:01:20.650854,NaN,1,digit,DIGIT5_OFF,150,2026-03-23 16:03:26.658711,125.963145,0.000000,,4,,,,keyboard,digit#5 off,"{""value"":4,""note"":""digit#5 off"",""pd_used"":0}",2,0.008333,120.000000,1
Sergio_G01_CNS-LLF5HT7Y0,cpeeg02,offmed_offstim,20260323_155934,2026-03-23 16:01:20.650854,NaN,1,digit,POSTDIG_FIX5_ON,155,2026-03-23 16:03:26.661347,125.963145,3.172964,,,,,,keyboard,after digit#5,"{""note"":""after digit#5""}",2,0.008333,120.000000,1
Sergio_G01_CNS-LLF5HT7Y0,cpeeg02,offmed_offstim,20260323_155934,2026-03-23 16:01:20.650854,NaN,1,digit,POSTDIG_FIX5_OFF,160,2026-03-23 16:03:29.831950,129.136110,0.061411,,,,,,keyboard,after digit#5,"{""note"":""after digit#5"",""pd_used"":0}",2,0.008333,120.000000,1
Sergio_G01_CNS-LLF5HT7Y0,cpeeg02,offmed_offstim,20260323_155934,2026-03-23 16:01:20.650854,NaN,1,distractor,DISTRACTOR_ON,50,2026-03-23 16:03:29.893552,129.197520,8.630302,,9+3=10,,,,keyboard,,"{""value"":""9+3=10"",""isCorrectTruth"":false,""trueSum"":12,""pd_used"":1}",2,0.008333,120.000000,1
Sergio_G01_CNS-LLF5HT7Y0,cpeeg02,offmed_offstim,20260323_155934,2026-03-23 16:01:20.650854,NaN,1,distractor,DISTRACTOR_ANS,51,2026-03-23 16:03:38.919369,137.827822,0.000000,8.630302,9+3=10,F,1,,keyboard,key= (False),"{""value"":""9+3=10"",""entered"":""F"",""rt"":8.6303015000012238,""correct"":1,""note"":""key= (False)"",""truth"":false,""trueSum"":12,""shownSum"":10,""a"":9,""b"":3}",2,0.008333,120.000000,1
Sergio_G01_CNS-LLF5HT7Y0,cpeeg02,offmed_offstim,20260323_155934,2026-03-23 16:01:20.650854,NaN,1,distractor,ANS_CORRECT,100,2026-03-23 16:03:38.965557,137.827822,0.495523,,,,,,keyboard,,{},2,0.008333,120.000000,1
Sergio_G01_CNS-LLF5HT7Y0,cpeeg02,offmed_offstim,20260323_155934,2026-03-23 16:01:20.650854,NaN,1,distractor,DISTRACTOR_OFF,52,2026-03-23 16:03:39.018696,138.323345,0.000000,,,,,,keyboard,,"{""pd_used"":0}",2,0.008333,120.000000,1
Sergio_G01_CNS-LLF5HT7Y0,cpeeg02,offmed_offstim,20260323_155934,2026-03-23 16:01:20.650854,NaN,1,distractor,FIX2_ON,60,2026-03-23 16:03:39.021704,138.323345,3.318161,,,,,,keyboard,immediate after response,"{""note"":""immediate after response""}",2,0.008333,120.000000,1
Sergio_G01_CNS-LLF5HT7Y0,cpeeg02,offmed_offstim,20260323_155934,2026-03-23 16:01:20.650854,NaN,1,fix2,FIX2_OFF,61,2026-03-23 16:03:42.336787,141.641507,0.057895,,,,,,keyboard,,"{""pd_used"":0}",2,0.008333,120.000000,1
Sergio_G01_CNS-LLF5HT7Y0,cpeeg02,offmed_offstim,20260323_155934,2026-03-23 16:01:20.650854,NaN,1,probe,DIGIT_RECALL_LINE_1,161,2026-03-23 16:03:42.394211,141.699401,3.184419,,1,,,,keyboard,first recall question,"{""value"":1,""note"":""first recall question"",""pd_used"":1}",2,0.008333,120.000000,1
Sergio_G01_CNS-LLF5HT7Y0,cpeeg02,offmed_offstim,20260323_155934,2026-03-23 16:01:20.650854,NaN,1,probe,PROBE_DIGIT_OK_1,71,2026-03-23 16:03:46.002965,144.883820,0.522715,3.196089,slot#1,NaN,,,keyboard,probe_digit#1,"{""value"":""slot#1"",""entered"":null,""rt"":3.1960892000024614,""note"":""probe_digit#1""}",2,0.008333,120.000000,1
Sergio_G01_CNS-LLF5HT7Y0,cpeeg02,offmed_offstim,20260323_155934,2026-03-23 16:01:20.650854,NaN,1,probe,DIGIT1_OFF,146,2026-03-23 16:03:46.102359,145.406534,0.000000,,4,,,,keyboard,digit#1 off,"{""value"":4,""note"":""digit#1 off"",""pd_used"":0}",2,0.008333,120.000000,1
Sergio_G01_CNS-LLF5HT7Y0,cpeeg02,offmed_offstim,20260323_155934,2026-03-23 16:01:20.650854,NaN,1,probe,POSTDIG_FIX1_ON,151,2026-03-23 16:03:46.106145,145.406534,1.773467,,,,,,keyboard,after digit#1,"{""note"":""after digit#1""}",2,0.008333,120.000000,1
Sergio_G01_CNS-LLF5HT7Y0,cpeeg02,offmed_offstim,20260323_155934,2026-03-23 16:01:20.650854,NaN,1,probe,POSTDIG_FIX1_OFF,156,2026-03-23 16:03:47.872396,147.180001,0.059604,,,,,,keyboard,after digit#1,"{""note"":""after digit#1"",""pd_used"":0}",2,0.008333,120.000000,1
Sergio_G01_CNS-LLF5HT7Y0,cpeeg02,offmed_offstim,20260323_155934,2026-03-23 16:01:20.650854,NaN,1,probe,DIGIT_RECALL_LINE_2,162,2026-03-23 16:03:47.932255,147.239605,1.128161,,2,,,,keyboard,next recall question,"{""value"":2,""note"":""next recall question"",""pd_used"":1}",2,0.008333,120.000000,1
Sergio_G01_CNS-LLF5HT7Y0,cpeeg02,offmed_offstim,20260323_155934,2026-03-23 16:01:20.650854,NaN,1,probe,PROBE_DIGIT_OK_2,71,2026-03-23 16:03:49.714471,148.367766,0.744872,6.680036,slot#2,NaN,,,keyboard,probe_digit#2,"{""value"":""slot#2"",""entered"":null,""rt"":6.6800356000021566,""note"":""probe_digit#2""}",2,0.008333,120.000000,1
Sergio_G01_CNS-LLF5HT7Y0,cpeeg02,offmed_offstim,20260323_155934,2026-03-23 16:01:20.650854,NaN,1,probe,DIGIT2_OFF,147,2026-03-23 16:03:49.808718,149.112638,0.000000,,4,,,,keyboard,digit#2 off,"{""value"":4,""note"":""digit#2 off"",""pd_used"":0}",2,0.008333,120.000000,1
Sergio_G01_CNS-LLF5HT7Y0,cpeeg02,offmed_offstim,20260323_155934,2026-03-23 16:01:20.650854,NaN,1,probe,POSTDIG_FIX2_ON,152,2026-03-23 16:03:49.809532,149.112638,1.633685,,,,,,keyboard,after digit#2,"{""note"":""after digit#2""}",2,0.008333,120.000000,1
Sergio_G01_CNS-LLF5HT7Y0,cpeeg02,offmed_offstim,20260323_155934,2026-03-23 16:01:20.650854,NaN,1,probe,POSTDIG_FIX2_OFF,157,2026-03-23 16:03:51.442317,150.746323,0.062550,,,,,,keyboard,after digit#2,"{""note"":""after digit#2"",""pd_used"":0}",2,0.008333,120.000000,1
Sergio_G01_CNS-LLF5HT7Y0,cpeeg02,offmed_offstim,20260323_155934,2026-03-23 16:01:20.650854,NaN,1,probe,DIGIT_RECALL_LINE_3,163,2026-03-23 16:03:51.503384,150.808874,1.612021,,3,,,,keyboard,next recall question,"{""value"":3,""note"":""next recall question"",""pd_used"":1}",2,0.008333,120.000000,1
Sergio_G01_CNS-LLF5HT7Y0,cpeeg02,offmed_offstim,20260323_155934,2026-03-23 16:01:20.650854,NaN,1,probe,PROBE_DIGIT_OK_3,71,2026-03-23 16:03:53.463745,152.420895,0.443946,10.733165,slot#3,NaN,,,keyboard,probe_digit#3,"{""value"":""slot#3"",""entered"":null,""rt"":10.733164500001294,""note"":""probe_digit#3""}",2,0.008333,120.000000,1
Sergio_G01_CNS-LLF5HT7Y0,cpeeg02,offmed_offstim,20260323_155934,2026-03-23 16:01:20.650854,NaN,1,probe,DIGIT3_OFF,148,2026-03-23 16:03:53.563193,152.864841,0.000000,,4,,,,keyboard,digit#3 off,"{""value"":4,""note"":""digit#3 off"",""pd_used"":0}",2,0.008333,120.000000,1
Sergio_G01_CNS-LLF5HT7Y0,cpeeg02,offmed_offstim,20260323_155934,2026-03-23 16:01:20.650854,NaN,1,probe,POSTDIG_FIX3_ON,153,2026-03-23 16:03:53.565469,152.864841,1.691089,,,,,,keyboard,after digit#3,"{""note"":""after digit#3""}",2,0.008333,120.000000,1
Sergio_G01_CNS-LLF5HT7Y0,cpeeg02,offmed_offstim,20260323_155934,2026-03-23 16:01:20.650854,NaN,1,probe,POSTDIG_FIX3_OFF,158,2026-03-23 16:03:55.252195,154.555930,0.062644,,,,,,keyboard,after digit#3,"{""note"":""after digit#3"",""pd_used"":0}",2,0.008333,120.000000,1
Sergio_G01_CNS-LLF5HT7Y0,cpeeg02,offmed_offstim,20260323_155934,2026-03-23 16:01:20.650854,NaN,1,probe,DIGIT_RECALL_LINE_4,164,2026-03-23 16:03:55.313872,154.618575,2.121496,,4,,,,keyboard,next recall question,"{""value"":4,""note"":""next recall question"",""pd_used"":1}",2,0.008333,120.000000,1
Sergio_G01_CNS-LLF5HT7Y0,cpeeg02,offmed_offstim,20260323_155934,2026-03-23 16:01:20.650854,NaN,1,probe,PROBE_DIGIT_OK_4,71,2026-03-23 16:03:57.886380,156.740071,0.544648,15.052340,slot#4,NaN,,,keyboard,probe_digit#4,"{""value"":""slot#4"",""entered"":null,""rt"":15.052340000002005,""note"":""probe_digit#4""}",2,0.008333,120.000000,1
Sergio_G01_CNS-LLF5HT7Y0,cpeeg02,offmed_offstim,20260323_155934,2026-03-23 16:01:20.650854,NaN,1,probe,DIGIT4_OFF,149,2026-03-23 16:03:57.980987,157.284718,0.000000,,4,,,,keyboard,digit#4 off,"{""value"":4,""note"":""digit#4 off"",""pd_used"":0}",2,0.008333,120.000000,1
Sergio_G01_CNS-LLF5HT7Y0,cpeeg02,offmed_offstim,20260323_155934,2026-03-23 16:01:20.650854,NaN,1,probe,POSTDIG_FIX4_ON,154,2026-03-23 16:03:57.981747,157.284718,1.606250,,,,,,keyboard,after digit#4,"{""note"":""after digit#4""}",2,0.008333,120.000000,1
Sergio_G01_CNS-LLF5HT7Y0,cpeeg02,offmed_offstim,20260323_155934,2026-03-23 16:01:20.650854,NaN,1,probe,POSTDIG_FIX4_OFF,159,2026-03-23 16:03:59.583487,158.890968,0.057783,,,,,,keyboard,after digit#4,"{""note"":""after digit#4"",""pd_used"":0}",2,0.008333,120.000000,1
Sergio_G01_CNS-LLF5HT7Y0,cpeeg02,offmed_offstim,20260323_155934,2026-03-23 16:01:20.650854,NaN,1,probe,DIGIT_RECALL_LINE_5,165,2026-03-23 16:03:59.641115,158.948751,2.512630,,5,,,,keyboard,next recall question,"{""value"":5,""note"":""next recall question"",""pd_used"":1}",2,0.008333,120.000000,1
Sergio_G01_CNS-LLF5HT7Y0,cpeeg02,offmed_offstim,20260323_155934,2026-03-23 16:01:20.650854,NaN,1,probe,PROBE_DIGIT_OK_5,71,2026-03-23 16:04:02.630034,161.461381,0.568383,19.773650,slot#5,NaN,,,keyboard,probe_digit#5,"{""value"":""slot#5"",""entered"":null,""rt"":19.773650499999349,""note"":""probe_digit#5""}",2,0.008333,120.000000,1
Sergio_G01_CNS-LLF5HT7Y0,cpeeg02,offmed_offstim,20260323_155934,2026-03-23 16:01:20.650854,NaN,1,probe,DIGIT5_OFF,150,2026-03-23 16:04:02.725527,162.029764,0.000000,,4,,,,keyboard,digit#5 off,"{""value"":4,""note"":""digit#5 off"",""pd_used"":0}",2,0.008333,120.000000,1
Sergio_G01_CNS-LLF5HT7Y0,cpeeg02,offmed_offstim,20260323_155934,2026-03-23 16:01:20.650854,NaN,1,probe,POSTDIG_FIX5_ON,155,2026-03-23 16:04:02.727027,162.029764,3.210823,,,,,,keyboard,after digit#5,"{""note"":""after digit#5""}",2,0.008333,120.000000,1
Sergio_G01_CNS-LLF5HT7Y0,cpeeg02,offmed_offstim,20260323_155934,2026-03-23 16:01:20.650854,NaN,1,probe,POSTDIG_FIX5_OFF,160,2026-03-23 16:04:05.934184,165.240588,0.050125,,,,,,keyboard,after digit#5,"{""note"":""after digit#5"",""pd_used"":0}",2,0.008333,120.000000,1
Sergio_G01_CNS-LLF5HT7Y0,cpeeg02,offmed_offstim,20260323_155934,2026-03-23 16:01:20.650854,NaN,1,probe,PROBE_DONE,73,2026-03-23 16:04:05.941626,165.290713,0.000870,,,,,,keyboard,probe complete,"{""value"":"""",""note"":""probe complete""}",2,0.008333,120.000000,1
Sergio_G01_CNS-LLF5HT7Y0,cpeeg02,offmed_offstim,20260323_155934,2026-03-23 16:01:20.650854,NaN,1,probe,TRIAL_END,21,2026-03-23 16:04:05.942335,165.291583,0.042964,,,,,,keyboard,,{},2,0.008333,120.000000,1
Sergio_G01_CNS-LLF5HT7Y0,cpeeg02,offmed_offstim,20260323_155934,2026-03-23 16:01:20.650854,NaN,2,probe,TRIAL_CHANGE,22,2026-03-23 16:04:05.985440,165.334547,0.000825,,,,,,keyboard,trial transition,"{""note"":""trial transition""}",2,0.008333,120.000000,1
Sergio_G01_CNS-LLF5HT7Y0,cpeeg02,offmed_offstim,20260323_155934,2026-03-23 16:01:20.650854,NaN,2,probe,TRIAL_START,20,2026-03-23 16:04:05.986118,165.335372,0.058927,,,,,,keyboard,,{},2,0.008333,120.000000,1
Sergio_G01_CNS-LLF5HT7Y0,cpeeg02,offmed_offstim,20260323_155934,2026-03-23 16:01:20.650854,NaN,2,fix1,FIX1_ON,30,2026-03-23 16:04:06.090281,165.394300,3.218038,,,,,,keyboard,,"{""pd_used"":0}",2,0.008333,120.000000,1
Sergio_G01_CNS-LLF5HT7Y0,cpeeg02,offmed_offstim,20260323_155934,2026-03-23 16:01:20.650854,NaN,2,fix1,FIX1_OFF,31,2026-03-23 16:04:09.305502,168.612338,0.052331,,,,,,keyboard,,"{""pd_used"":0}",2,0.008333,120.000000,1
Sergio_G01_CNS-LLF5HT7Y0,cpeeg02,offmed_offstim,20260323_155934,2026-03-23 16:01:20.650854,NaN,2,digit,DIGIT1_ON,141,2026-03-23 16:04:09.357244,168.664669,0.551630,,3,,,,keyboard,digit#1 shown,"{""value"":3,""note"":""digit#1 shown"",""pd_used"":1}",2,0.008333,120.000000,1
Sergio_G01_CNS-LLF5HT7Y0,cpeeg02,offmed_offstim,20260323_155934,2026-03-23 16:01:20.650854,NaN,2,digit,DIGIT1_OFF,146,2026-03-23 16:04:09.909421,169.216300,0.000000,,3,,,,keyboard,digit#1 off,"{""value"":3,""note"":""digit#1 off"",""pd_used"":0}",2,0.008333,120.000000,1
Sergio_G01_CNS-LLF5HT7Y0,cpeeg02,offmed_offstim,20260323_155934,2026-03-23 16:01:20.650854,NaN,2,digit,POSTDIG_FIX1_ON,151,2026-03-23 16:04:09.910637,169.216300,1.783708,,,,,,keyboard,after digit#1,"{""note"":""after digit#1""}",2,0.008333,120.000000,1
Sergio_G01_CNS-LLF5HT7Y0,cpeeg02,offmed_offstim,20260323_155934,2026-03-23 16:01:20.650854,NaN,2,digit,POSTDIG_FIX1_OFF,156,2026-03-23 16:04:11.696781,171.000007,0.057224,,,,,,keyboard,after digit#1,"{""note"":""after digit#1"",""pd_used"":0}",2,0.008333,120.000000,1
Sergio_G01_CNS-LLF5HT7Y0,cpeeg02,offmed_offstim,20260323_155934,2026-03-23 16:01:20.650854,NaN,2,digit,DIGIT2_ON,142,2026-03-23 16:04:11.753126,171.057231,0.556372,,6,,,,keyboard,digit#2 shown,"{""value"":6,""note"":""digit#2 shown"",""pd_used"":1}",2,0.008333,120.000000,1
Sergio_G01_CNS-LLF5HT7Y0,cpeeg02,offmed_offstim,20260323_155934,2026-03-23 16:01:20.650854,NaN,2,digit,DIGIT2_OFF,147,2026-03-23 16:04:12.309483,171.613603,0.000000,,6,,,,keyboard,digit#2 off,"{""value"":6,""note"":""digit#2 off"",""pd_used"":0}",2,0.008333,120.000000,1
Sergio_G01_CNS-LLF5HT7Y0,cpeeg02,offmed_offstim,20260323_155934,2026-03-23 16:01:20.650854,NaN,2,digit,POSTDIG_FIX2_ON,152,2026-03-23 16:04:12.311983,171.613603,2.015508,,,,,,keyboard,after digit#2,"{""note"":""after digit#2""}",2,0.008333,120.000000,1
Sergio_G01_CNS-LLF5HT7Y0,cpeeg02,offmed_offstim,20260323_155934,2026-03-23 16:01:20.650854,NaN,2,digit,POSTDIG_FIX2_OFF,157,2026-03-23 16:04:14.325453,173.629111,0.056157,,,,,,keyboard,after digit#2,"{""note"":""after digit#2"",""pd_used"":0}",2,0.008333,120.000000,1
Sergio_G01_CNS-LLF5HT7Y0,cpeeg02,offmed_offstim,20260323_155934,2026-03-23 16:01:20.650854,NaN,2,digit,DIGIT3_ON,143,2026-03-23 16:04:14.381648,173.685268,0.556779,,4,,,,keyboard,digit#3 shown,"{""value"":4,""note"":""digit#3 shown"",""pd_used"":1}",2,0.008333,120.000000,1
Sergio_G01_CNS-LLF5HT7Y0,cpeeg02,offmed_offstim,20260323_155934,2026-03-23 16:01:20.650854,NaN,2,digit,DIGIT3_OFF,148,2026-03-23 16:04:14.937825,174.242047,0.000000,,4,,,,keyboard,digit#3 off,"{""value"":4,""note"":""digit#3 off"",""pd_used"":0}",2,0.008333,120.000000,1
Sergio_G01_CNS-LLF5HT7Y0,cpeeg02,offmed_offstim,20260323_155934,2026-03-23 16:01:20.650854,NaN,2,digit,POSTDIG_FIX3_ON,153,2026-03-23 16:04:14.940208,174.242047,1.607012,,,,,,keyboard,after digit#3,"{""note"":""after digit#3""}",2,0.008333,120.000000,1
Sergio_G01_CNS-LLF5HT7Y0,cpeeg02,offmed_offstim,20260323_155934,2026-03-23 16:01:20.650854,NaN,2,digit,POSTDIG_FIX3_OFF,158,2026-03-23 16:04:16.544880,175.849060,0.056554,,,,,,keyboard,after digit#3,"{""note"":""after digit#3"",""pd_used"":0}",2,0.008333,120.000000,1
Sergio_G01_CNS-LLF5HT7Y0,cpeeg02,offmed_offstim,20260323_155934,2026-03-23 16:01:20.650854,NaN,2,digit,DIGIT4_ON,144,2026-03-23 16:04:16.600229,175.905614,0.553810,,7,,,,keyboard,digit#4 shown,"{""value"":7,""note"":""digit#4 shown"",""pd_used"":1}",2,0.008333,120.000000,1
Sergio_G01_CNS-LLF5HT7Y0,cpeeg02,offmed_offstim,20260323_155934,2026-03-23 16:01:20.650854,NaN,2,digit,DIGIT4_OFF,149,2026-03-23 16:04:17.155869,176.459424,0.000000,,7,,,,keyboard,digit#4 off,"{""value"":7,""note"":""digit#4 off"",""pd_used"":0}",2,0.008333,120.000000,1
Sergio_G01_CNS-LLF5HT7Y0,cpeeg02,offmed_offstim,20260323_155934,2026-03-23 16:01:20.650854,NaN,2,digit,POSTDIG_FIX4_ON,154,2026-03-23 16:04:17.158186,176.459424,1.879891,,,,,,keyboard,after digit#4,"{""note"":""after digit#4""}",2,0.008333,120.000000,1
Sergio_G01_CNS-LLF5HT7Y0,cpeeg02,offmed_offstim,20260323_155934,2026-03-23 16:01:20.650854,NaN,2,digit,POSTDIG_FIX4_OFF,159,2026-03-23 16:04:19.033700,178.339315,0.053674,,,,,,keyboard,after digit#4,"{""note"":""after digit#4"",""pd_used"":0}",2,0.008333,120.000000,1
Sergio_G01_CNS-LLF5HT7Y0,cpeeg02,offmed_offstim,20260323_155934,2026-03-23 16:01:20.650854,NaN,2,digit,DIGIT5_ON,145,2026-03-23 16:04:19.086034,178.392989,0.551673,,4,,,,keyboard,digit#5 shown,"{""value"":4,""note"":""digit#5 shown"",""pd_used"":1}",2,0.008333,120.000000,1
Sergio_G01_CNS-LLF5HT7Y0,cpeeg02,offmed_offstim,20260323_155934,2026-03-23 16:01:20.650854,NaN,2,digit,DIGIT5_OFF,150,2026-03-23 16:04:19.637056,178.944662,0.000000,,4,,,,keyboard,digit#5 off,"{""value"":4,""note"":""digit#5 off"",""pd_used"":0}",2,0.008333,120.000000,1
Sergio_G01_CNS-LLF5HT7Y0,cpeeg02,offmed_offstim,20260323_155934,2026-03-23 16:01:20.650854,NaN,2,digit,POSTDIG_FIX5_ON,155,2026-03-23 16:04:19.638674,178.944662,3.098926,,,,,,keyboard,after digit#5,"{""note"":""after digit#5""}",2,0.008333,120.000000,1
Sergio_G01_CNS-LLF5HT7Y0,cpeeg02,offmed_offstim,20260323_155934,2026-03-23 16:01:20.650854,NaN,2,digit,POSTDIG_FIX5_OFF,160,2026-03-23 16:04:22.736424,182.043588,0.052439,,,,,,keyboard,after digit#5,"{""note"":""after digit#5"",""pd_used"":0}",2,0.008333,120.000000,1
Sergio_G01_CNS-LLF5HT7Y0,cpeeg02,offmed_offstim,20260323_155934,2026-03-23 16:01:20.650854,NaN,2,distractor,DISTRACTOR_ON,50,2026-03-23 16:04:22.788311,182.096026,2.920624,,1+5=6,,,,keyboard,,"{""value"":""1+5=6"",""isCorrectTruth"":true,""trueSum"":6,""pd_used"":1}",2,0.008333,120.000000,1
Sergio_G01_CNS-LLF5HT7Y0,cpeeg02,offmed_offstim,20260323_155934,2026-03-23 16:01:20.650854,NaN,2,distractor,DISTRACTOR_ANS,51,2026-03-23 16:04:26.153729,185.016650,0.000000,2.920624,1+5=6,F,0,,keyboard,key= (False),"{""value"":""1+5=6"",""entered"":""F"",""rt"":2.9206239999984973,""correct"":0,""note"":""key= (False)"",""truth"":true,""trueSum"":6,""shownSum"":6,""a"":1,""b"":5}",2,0.008333,120.000000,1
Sergio_G01_CNS-LLF5HT7Y0,cpeeg02,offmed_offstim,20260323_155934,2026-03-23 16:01:20.650854,NaN,2,distractor,ANS_WRONG,200,2026-03-23 16:04:26.200105,185.016650,0.541641,,,,,,keyboard,,{},2,0.008333,120.000000,1
Sergio_G01_CNS-LLF5HT7Y0,cpeeg02,offmed_offstim,20260323_155934,2026-03-23 16:01:20.650854,NaN,2,distractor,DISTRACTOR_OFF,52,2026-03-23 16:04:26.251891,185.558291,0.000000,,,,,,keyboard,,"{""pd_used"":0}",2,0.008333,120.000000,1
Sergio_G01_CNS-LLF5HT7Y0,cpeeg02,offmed_offstim,20260323_155934,2026-03-23 16:01:20.650854,NaN,2,distractor,FIX2_ON,60,2026-03-23 16:04:26.253453,185.558291,3.531289,,,,,,keyboard,immediate after response,"{""note"":""immediate after response""}",2,0.008333,120.000000,1
Sergio_G01_CNS-LLF5HT7Y0,cpeeg02,offmed_offstim,20260323_155934,2026-03-23 16:01:20.650854,NaN,2,fix2,FIX2_OFF,61,2026-03-23 16:04:29.785200,189.089580,0.056773,,,,,,keyboard,,"{""pd_used"":0}",2,0.008333,120.000000,1
Sergio_G01_CNS-LLF5HT7Y0,cpeeg02,offmed_offstim,20260323_155934,2026-03-23 16:01:20.650854,NaN,2,probe,DIGIT_RECALL_LINE_1,161,2026-03-23 16:04:29.841342,189.146353,2.702778,,1,,,,keyboard,first recall question,"{""value"":1,""note"":""first recall question"",""pd_used"":1}",2,0.008333,120.000000,1
Sergio_G01_CNS-LLF5HT7Y0,cpeeg02,offmed_offstim,20260323_155934,2026-03-23 16:01:20.650854,NaN,2,probe,PROBE_DIGIT_OK_1,71,2026-03-23 16:04:32.902993,191.849130,0.454455,2.713032,slot#1,NaN,,,keyboard,probe_digit#1,"{""value"":""slot#1"",""entered"":null,""rt"":2.7130318999988958,""note"":""probe_digit#1""}",2,0.008333,120.000000,1
Sergio_G01_CNS-LLF5HT7Y0,cpeeg02,offmed_offstim,20260323_155934,2026-03-23 16:01:20.650854,NaN,2,probe,DIGIT1_OFF,146,2026-03-23 16:04:33.000223,192.303586,0.000000,,4,,,,keyboard,digit#1 off,"{""value"":4,""note"":""digit#1 off"",""pd_used"":0}",2,0.008333,120.000000,1
Sergio_G01_CNS-LLF5HT7Y0,cpeeg02,offmed_offstim,20260323_155934,2026-03-23 16:01:20.650854,NaN,2,probe,POSTDIG_FIX1_ON,151,2026-03-23 16:04:33.001951,192.303586,1.805058,,,,,,keyboard,after digit#1,"{""note"":""after digit#1""}",2,0.008333,120.000000,1
Sergio_G01_CNS-LLF5HT7Y0,cpeeg02,offmed_offstim,20260323_155934,2026-03-23 16:01:20.650854,NaN,2,probe,POSTDIG_FIX1_OFF,156,2026-03-23 16:04:34.804607,194.108643,0.063452,,,,,,keyboard,after digit#1,"{""note"":""after digit#1"",""pd_used"":0}",2,0.008333,120.000000,1
Sergio_G01_CNS-LLF5HT7Y0,cpeeg02,offmed_offstim,20260323_155934,2026-03-23 16:01:20.650854,NaN,2,probe,DIGIT_RECALL_LINE_2,162,2026-03-23 16:04:34.867201,194.172096,2.057735,,2,,,,keyboard,next recall question,"{""value"":2,""note"":""next recall question"",""pd_used"":1}",2,0.008333,120.000000,1
Sergio_G01_CNS-LLF5HT7Y0,cpeeg02,offmed_offstim,20260323_155934,2026-03-23 16:01:20.650854,NaN,2,probe,PROBE_DIGIT_OK_2,71,2026-03-23 16:04:37.298770,196.229831,0.466237,7.093733,slot#2,NaN,,,keyboard,probe_digit#2,"{""value"":""slot#2"",""entered"":null,""rt"":7.0937325999984751,""note"":""probe_digit#2""}",2,0.008333,120.000000,1
Sergio_G01_CNS-LLF5HT7Y0,cpeeg02,offmed_offstim,20260323_155934,2026-03-23 16:01:20.650854,NaN,2,probe,DIGIT2_OFF,147,2026-03-23 16:04:37.392646,196.696069,0.000000,,4,,,,keyboard,digit#2 off,"{""value"":4,""note"":""digit#2 off"",""pd_used"":0}",2,0.008333,120.000000,1
Sergio_G01_CNS-LLF5HT7Y0,cpeeg02,offmed_offstim,20260323_155934,2026-03-23 16:01:20.650854,NaN,2,probe,POSTDIG_FIX2_ON,152,2026-03-23 16:04:37.393778,196.696069,1.858917,,,,,,keyboard,after digit#2,"{""note"":""after digit#2""}",2,0.008333,120.000000,1
Sergio_G01_CNS-LLF5HT7Y0,cpeeg02,offmed_offstim,20260323_155934,2026-03-23 16:01:20.650854,NaN,2,probe,POSTDIG_FIX2_OFF,157,2026-03-23 16:04:39.247376,198.554985,0.059119,,,,,,keyboard,after digit#2,"{""note"":""after digit#2"",""pd_used"":0}",2,0.008333,120.000000,1
Sergio_G01_CNS-LLF5HT7Y0,cpeeg02,offmed_offstim,20260323_155934,2026-03-23 16:01:20.650854,NaN,2,probe,DIGIT_RECALL_LINE_3,163,2026-03-23 16:04:39.308487,198.614104,5.523519,,3,,,,keyboard,next recall question,"{""value"":3,""note"":""next recall question"",""pd_used"":1}",2,0.008333,120.000000,1
Sergio_G01_CNS-LLF5HT7Y0,cpeeg02,offmed_offstim,20260323_155934,2026-03-23 16:01:20.650854,NaN,2,probe,PROBE_DIGIT_OK_3,71,2026-03-23 16:04:45.386001,204.137624,0.649571,15.001525,slot#3,NaN,,,keyboard,probe_digit#3,"{""value"":""slot#3"",""entered"":null,""rt"":15.001525399999082,""note"":""probe_digit#3""}",2,0.008333,120.000000,1
Sergio_G01_CNS-LLF5HT7Y0,cpeeg02,offmed_offstim,20260323_155934,2026-03-23 16:01:20.650854,NaN,2,probe,DIGIT3_OFF,148,2026-03-23 16:04:45.484798,204.787195,0.000000,,4,,,,keyboard,digit#3 off,"{""value"":4,""note"":""digit#3 off"",""pd_used"":0}",2,0.008333,120.000000,1
Sergio_G01_CNS-LLF5HT7Y0,cpeeg02,offmed_offstim,20260323_155934,2026-03-23 16:01:20.650854,NaN,2,probe,POSTDIG_FIX3_ON,153,2026-03-23 16:04:45.487116,204.787195,1.791792,,,,,,keyboard,after digit#3,"{""note"":""after digit#3""}",2,0.008333,120.000000,1
Sergio_G01_CNS-LLF5HT7Y0,cpeeg02,offmed_offstim,20260323_155934,2026-03-23 16:01:20.650854,NaN,2,probe,POSTDIG_FIX3_OFF,158,2026-03-23 16:04:47.275157,206.578987,0.063111,,,,,,keyboard,after digit#3,"{""note"":""after digit#3"",""pd_used"":0}",2,0.008333,120.000000,1
Sergio_G01_CNS-LLF5HT7Y0,cpeeg02,offmed_offstim,20260323_155934,2026-03-23 16:01:20.650854,NaN,2,probe,DIGIT_RECALL_LINE_4,164,2026-03-23 16:04:47.337759,206.642098,1.170039,,4,,,,keyboard,next recall question,"{""value"":4,""note"":""next recall question"",""pd_used"":1}",2,0.008333,120.000000,1
Sergio_G01_CNS-LLF5HT7Y0,cpeeg02,offmed_offstim,20260323_155934,2026-03-23 16:01:20.650854,NaN,2,probe,PROBE_DIGIT_OK_4,71,2026-03-23 16:04:48.803769,207.812137,0.392508,18.676038,slot#4,NaN,,,keyboard,probe_digit#4,"{""value"":""slot#4"",""entered"":null,""rt"":18.676038400000834,""note"":""probe_digit#4""}",2,0.008333,120.000000,1
Sergio_G01_CNS-LLF5HT7Y0,cpeeg02,offmed_offstim,20260323_155934,2026-03-23 16:01:20.650854,NaN,2,probe,DIGIT4_OFF,149,2026-03-23 16:04:48.902520,208.204645,0.000000,,4,,,,keyboard,digit#4 off,"{""value"":4,""note"":""digit#4 off"",""pd_used"":0}",2,0.008333,120.000000,1
Sergio_G01_CNS-LLF5HT7Y0,cpeeg02,offmed_offstim,20260323_155934,2026-03-23 16:01:20.650854,NaN,2,probe,POSTDIG_FIX4_ON,154,2026-03-23 16:04:48.904715,208.204645,1.827528,,,,,,keyboard,after digit#4,"{""note"":""after digit#4""}",2,0.008333,120.000000,1
Sergio_G01_CNS-LLF5HT7Y0,cpeeg02,offmed_offstim,20260323_155934,2026-03-23 16:01:20.650854,NaN,2,probe,POSTDIG_FIX4_OFF,159,2026-03-23 16:04:50.727538,210.032173,0.065066,,,,,,keyboard,after digit#4,"{""note"":""after digit#4"",""pd_used"":0}",2,0.008333,120.000000,1
Sergio_G01_CNS-LLF5HT7Y0,cpeeg02,offmed_offstim,20260323_155934,2026-03-23 16:01:20.650854,NaN,2,probe,DIGIT_RECALL_LINE_5,165,2026-03-23 16:04:50.792644,210.097239,1.706080,,5,,,,keyboard,next recall question,"{""value"":5,""note"":""next recall question"",""pd_used"":1}",2,0.008333,120.000000,1
Sergio_G01_CNS-LLF5HT7Y0,cpeeg02,offmed_offstim,20260323_155934,2026-03-23 16:01:20.650854,NaN,2,probe,PROBE_DIGIT_OK_5,71,2026-03-23 16:04:52.955090,211.803319,0.554248,22.667220,slot#5,NaN,,,keyboard,probe_digit#5,"{""value"":""slot#5"",""entered"":null,""rt"":22.66722049999953,""note"":""probe_digit#5""}",2,0.008333,120.000000,1
Sergio_G01_CNS-LLF5HT7Y0,cpeeg02,offmed_offstim,20260323_155934,2026-03-23 16:01:20.650854,NaN,2,probe,DIGIT5_OFF,150,2026-03-23 16:04:53.056122,212.357567,0.000000,,4,,,,keyboard,digit#5 off,"{""value"":4,""note"":""digit#5 off"",""pd_used"":0}",2,0.008333,120.000000,1
Sergio_G01_CNS-LLF5HT7Y0,cpeeg02,offmed_offstim,20260323_155934,2026-03-23 16:01:20.650854,NaN,2,probe,POSTDIG_FIX5_ON,155,2026-03-23 16:04:53.058339,212.357567,3.059980,,,,,,keyboard,after digit#5,"{""note"":""after digit#5""}",2,0.008333,120.000000,1
Sergio_G01_CNS-LLF5HT7Y0,cpeeg02,offmed_offstim,20260323_155934,2026-03-23 16:01:20.650854,NaN,2,probe,POSTDIG_FIX5_OFF,160,2026-03-23 16:04:56.113660,215.417547,0.054057,,,,,,keyboard,after digit#5,"{""note"":""after digit#5"",""pd_used"":0}",2,0.008333,120.000000,1
Sergio_G01_CNS-LLF5HT7Y0,cpeeg02,offmed_offstim,20260323_155934,2026-03-23 16:01:20.650854,NaN,2,probe,PROBE_DONE,73,2026-03-23 16:04:56.123072,215.471604,0.001869,,,,,,keyboard,probe complete,"{""value"":"""",""note"":""probe complete""}",2,0.008333,120.000000,1
Sergio_G01_CNS-LLF5HT7Y0,cpeeg02,offmed_offstim,20260323_155934,2026-03-23 16:01:20.650854,NaN,2,probe,TRIAL_END,21,2026-03-23 16:04:56.124743,215.473473,0.045747,,,,,,keyboard,,{},2,0.008333,120.000000,1
Sergio_G01_CNS-LLF5HT7Y0,cpeeg02,offmed_offstim,20260323_155934,2026-03-23 16:01:20.650854,NaN,3,probe,TRIAL_CHANGE,22,2026-03-23 16:04:56.171254,215.519220,0.002784,,,,,,keyboard,trial transition,"{""note"":""trial transition""}",2,0.008333,120.000000,1
Sergio_G01_CNS-LLF5HT7Y0,cpeeg02,offmed_offstim,20260323_155934,2026-03-23 16:01:20.650854,NaN,3,probe,TRIAL_START,20,2026-03-23 16:04:56.173637,215.522004,0.060127,,,,,,keyboard,,{},2,0.008333,120.000000,1
Sergio_G01_CNS-LLF5HT7Y0,cpeeg02,offmed_offstim,20260323_155934,2026-03-23 16:01:20.650854,NaN,3,fix1,FIX1_ON,30,2026-03-23 16:04:56.277840,215.582131,3.266004,,,,,,keyboard,,"{""pd_used"":0}",2,0.008333,120.000000,1
Sergio_G01_CNS-LLF5HT7Y0,cpeeg02,offmed_offstim,20260323_155934,2026-03-23 16:01:20.650854,NaN,3,fix1,FIX1_OFF,31,2026-03-23 16:04:59.544233,218.848135,0.057801,,,,,,keyboard,,"{""pd_used"":0}",2,0.008333,120.000000,1
Sergio_G01_CNS-LLF5HT7Y0,cpeeg02,offmed_offstim,20260323_155934,2026-03-23 16:01:20.650854,NaN,3,digit,DIGIT1_ON,141,2026-03-23 16:04:59.601807,218.905936,0.556383,,9,,,,keyboard,digit#1 shown,"{""value"":9,""note"":""digit#1 shown"",""pd_used"":1}",2,0.008333,120.000000,1
Sergio_G01_CNS-LLF5HT7Y0,cpeeg02,offmed_offstim,20260323_155934,2026-03-23 16:01:20.650854,NaN,3,digit,DIGIT1_OFF,146,2026-03-23 16:05:00.158682,219.462319,0.000000,,9,,,,keyboard,digit#1 off,"{""value"":9,""note"":""digit#1 off"",""pd_used"":0}",2,0.008333,120.000000,1
Sergio_G01_CNS-LLF5HT7Y0,cpeeg02,offmed_offstim,20260323_155934,2026-03-23 16:01:20.650854,NaN,3,digit,POSTDIG_FIX1_ON,151,2026-03-23 16:05:00.161181,219.462319,1.803440,,,,,,keyboard,after digit#1,"{""note"":""after digit#1""}",2,0.008333,120.000000,1
Sergio_G01_CNS-LLF5HT7Y0,cpeeg02,offmed_offstim,20260323_155934,2026-03-23 16:01:20.650854,NaN,3,digit,POSTDIG_FIX1_OFF,156,2026-03-23 16:05:01.961671,221.265759,0.056856,,,,,,keyboard,after digit#1,"{""note"":""after digit#1"",""pd_used"":0}",2,0.008333,120.000000,1
Sergio_G01_CNS-LLF5HT7Y0,cpeeg02,offmed_offstim,20260323_155934,2026-03-23 16:01:20.650854,NaN,3,digit,DIGIT2_ON,142,2026-03-23 16:05:02.018593,221.322615,0.556458,,8,,,,keyboard,digit#2 shown,"{""value"":8,""note"":""digit#2 shown"",""pd_used"":1}",2,0.008333,120.000000,1
Sergio_G01_CNS-LLF5HT7Y0,cpeeg02,offmed_offstim,20260323_155934,2026-03-23 16:01:20.650854,NaN,3,digit,DIGIT2_OFF,147,2026-03-23 16:05:02.573607,221.879073,0.000000,,8,,,,keyboard,digit#2 off,"{""value"":8,""note"":""digit#2 off"",""pd_used"":0}",2,0.008333,120.000000,1
Sergio_G01_CNS-LLF5HT7Y0,cpeeg02,offmed_offstim,20260323_155934,2026-03-23 16:01:20.650854,NaN,3,digit,POSTDIG_FIX2_ON,152,2026-03-23 16:05:02.575596,221.879073,1.570059,,,,,,keyboard,after digit#2,"{""note"":""after digit#2""}",2,0.008333,120.000000,1
Sergio_G01_CNS-LLF5HT7Y0,cpeeg02,offmed_offstim,20260323_155934,2026-03-23 16:01:20.650854,NaN,3,digit,POSTDIG_FIX2_OFF,157,2026-03-23 16:05:04.144931,223.449132,0.056312,,,,,,keyboard,after digit#2,"{""note"":""after digit#2"",""pd_used"":0}",2,0.008333,120.000000,1
Sergio_G01_CNS-LLF5HT7Y0,cpeeg02,offmed_offstim,20260323_155934,2026-03-23 16:01:20.650854,NaN,3,digit,DIGIT3_ON,143,2026-03-23 16:05:04.200880,223.505444,0.555031,,3,,,,keyboard,digit#3 shown,"{""value"":3,""note"":""digit#3 shown"",""pd_used"":1}",2,0.008333,120.000000,1
Sergio_G01_CNS-LLF5HT7Y0,cpeeg02,offmed_offstim,20260323_155934,2026-03-23 16:01:20.650854,NaN,3,digit,DIGIT3_OFF,148,2026-03-23 16:05:04.756369,224.060475,0.000000,,3,,,,keyboard,digit#3 off,"{""value"":3,""note"":""digit#3 off"",""pd_used"":0}",2,0.008333,120.000000,1
Sergio_G01_CNS-LLF5HT7Y0,cpeeg02,offmed_offstim,20260323_155934,2026-03-23 16:01:20.650854,NaN,3,digit,POSTDIG_FIX3_ON,153,2026-03-23 16:05:04.758781,224.060475,1.715520,,,,,,keyboard,after digit#3,"{""note"":""after digit#3""}",2,0.008333,120.000000,1
Sergio_G01_CNS-LLF5HT7Y0,cpeeg02,offmed_offstim,20260323_155934,2026-03-23 16:01:20.650854,NaN,3,digit,POSTDIG_FIX3_OFF,158,2026-03-23 16:05:06.472140,225.775995,0.056959,,,,,,keyboard,after digit#3,"{""note"":""after digit#3"",""pd_used"":0}",2,0.008333,120.000000,1
Sergio_G01_CNS-LLF5HT7Y0,cpeeg02,offmed_offstim,20260323_155934,2026-03-23 16:01:20.650854,NaN,3,digit,DIGIT4_ON,144,2026-03-23 16:05:06.528685,225.832955,0.556507,,3,,,,keyboard,digit#4 shown,"{""value"":3,""note"":""digit#4 shown"",""pd_used"":1}",2,0.008333,120.000000,1
Sergio_G01_CNS-LLF5HT7Y0,cpeeg02,offmed_offstim,20260323_155934,2026-03-23 16:01:20.650854,NaN,3,digit,DIGIT4_OFF,149,2026-03-23 16:05:07.085461,226.389461,0.000000,,3,,,,keyboard,digit#4 off,"{""value"":3,""note"":""digit#4 off"",""pd_used"":0}",2,0.008333,120.000000,1
Sergio_G01_CNS-LLF5HT7Y0,cpeeg02,offmed_offstim,20260323_155934,2026-03-23 16:01:20.650854,NaN,3,digit,POSTDIG_FIX4_ON,154,2026-03-23 16:05:07.087715,226.389461,1.682345,,,,,,keyboard,after digit#4,"{""note"":""after digit#4""}",2,0.008333,120.000000,1
Sergio_G01_CNS-LLF5HT7Y0,cpeeg02,offmed_offstim,20260323_155934,2026-03-23 16:01:20.650854,NaN,3,digit,POSTDIG_FIX4_OFF,159,2026-03-23 16:05:08.766987,228.071806,0.054318,,,,,,keyboard,after digit#4,"{""note"":""after digit#4"",""pd_used"":0}",2,0.008333,120.000000,1
Sergio_G01_CNS-LLF5HT7Y0,cpeeg02,offmed_offstim,20260323_155934,2026-03-23 16:01:20.650854,NaN,3,digit,DIGIT5_ON,145,2026-03-23 16:05:08.821917,228.126125,0.556453,,0,,,,keyboard,digit#5 shown,"{""value"":0,""note"":""digit#5 shown"",""pd_used"":1}",2,0.008333,120.000000,1
Sergio_G01_CNS-LLF5HT7Y0,cpeeg02,offmed_offstim,20260323_155934,2026-03-23 16:01:20.650854,NaN,3,digit,DIGIT5_OFF,150,2026-03-23 16:05:09.378434,228.682577,0.000000,,0,,,,keyboard,digit#5 off,"{""value"":0,""note"":""digit#5 off"",""pd_used"":0}",2,0.008333,120.000000,1
Sergio_G01_CNS-LLF5HT7Y0,cpeeg02,offmed_offstim,20260323_155934,2026-03-23 16:01:20.650854,NaN,3,digit,POSTDIG_FIX5_ON,155,2026-03-23 16:05:09.380423,228.682577,3.330182,,,,,,keyboard,after digit#5,"{""note"":""after digit#5""}",2,0.008333,120.000000,1
Sergio_G01_CNS-LLF5HT7Y0,cpeeg02,offmed_offstim,20260323_155934,2026-03-23 16:01:20.650854,NaN,3,digit,POSTDIG_FIX5_OFF,160,2026-03-23 16:05:12.708862,232.012759,0.057947,,,,,,keyboard,after digit#5,"{""note"":""after digit#5"",""pd_used"":0}",2,0.008333,120.000000,1
Sergio_G01_CNS-LLF5HT7Y0,cpeeg02,offmed_offstim,20260323_155934,2026-03-23 16:01:20.650854,NaN,3,distractor,DISTRACTOR_ON,50,2026-03-23 16:05:12.766409,232.070706,4.685724,,1+7=11,,,,keyboard,,"{""value"":""1+7=11"",""isCorrectTruth"":false,""trueSum"":8,""pd_used"":1}",2,0.008333,120.000000,1
Sergio_G01_CNS-LLF5HT7Y0,cpeeg02,offmed_offstim,20260323_155934,2026-03-23 16:01:20.650854,NaN,3,distractor,DISTRACTOR_ANS,51,2026-03-23 16:05:17.834596,236.756431,0.000000,4.685724,1+7=11,F,1,,keyboard,key= (False),"{""value"":""1+7=11"",""entered"":""F"",""rt"":4.6857243000013113,""correct"":1,""note"":""key= (False)"",""truth"":false,""trueSum"":8,""shownSum"":11,""a"":1,""b"":7}",2,0.008333,120.000000,1
Sergio_G01_CNS-LLF5HT7Y0,cpeeg02,offmed_offstim,20260323_155934,2026-03-23 16:01:20.650854,NaN,3,distractor,ANS_CORRECT,100,2026-03-23 16:05:17.881295,236.756431,0.482460,,,,,,keyboard,,{},2,0.008333,120.000000,1
Sergio_G01_CNS-LLF5HT7Y0,cpeeg02,offmed_offstim,20260323_155934,2026-03-23 16:01:20.650854,NaN,3,distractor,DISTRACTOR_OFF,52,2026-03-23 16:05:17.934204,237.238891,0.000000,,,,,,keyboard,,"{""pd_used"":0}",2,0.008333,120.000000,1
Sergio_G01_CNS-LLF5HT7Y0,cpeeg02,offmed_offstim,20260323_155934,2026-03-23 16:01:20.650854,NaN,3,distractor,FIX2_ON,60,2026-03-23 16:05:17.936379,237.238891,3.340353,,,,,,keyboard,immediate after response,"{""note"":""immediate after response""}",2,0.008333,120.000000,1
Sergio_G01_CNS-LLF5HT7Y0,cpeeg02,offmed_offstim,20260323_155934,2026-03-23 16:01:20.650854,NaN,3,fix2,FIX2_OFF,61,2026-03-23 16:05:21.272184,240.579244,0.052630,,,,,,keyboard,,"{""pd_used"":0}",2,0.008333,120.000000,1
Sergio_G01_CNS-LLF5HT7Y0,cpeeg02,offmed_offstim,20260323_155934,2026-03-23 16:01:20.650854,NaN,3,probe,DIGIT_RECALL_LINE_1,161,2026-03-23 16:05:21.324079,240.631874,5.584292,,1,,,,keyboard,first recall question,"{""value"":1,""note"":""first recall question"",""pd_used"":1}",2,0.008333,120.000000,1
Sergio_G01_CNS-LLF5HT7Y0,cpeeg02,offmed_offstim,20260323_155934,2026-03-23 16:01:20.650854,NaN,3,probe,PROBE_DIGIT_OK_1,71,2026-03-23 16:05:27.507785,246.216167,0.690634,5.593476,slot#1,NaN,,,keyboard,probe_digit#1,"{""value"":""slot#1"",""entered"":null,""rt"":5.5934758999974292,""note"":""probe_digit#1""}",2,0.008333,120.000000,1
Sergio_G01_CNS-LLF5HT7Y0,cpeeg02,offmed_offstim,20260323_155934,2026-03-23 16:01:20.650854,NaN,3,probe,DIGIT1_OFF,146,2026-03-23 16:05:27.602462,246.906801,0.000000,,0,,,,keyboard,digit#1 off,"{""value"":0,""note"":""digit#1 off"",""pd_used"":0}",2,0.008333,120.000000,1
Sergio_G01_CNS-LLF5HT7Y0,cpeeg02,offmed_offstim,20260323_155934,2026-03-23 16:01:20.650854,NaN,3,probe,POSTDIG_FIX1_ON,151,2026-03-23 16:05:27.603303,246.906801,1.771550,,,,,,keyboard,after digit#1,"{""note"":""after digit#1""}",2,0.008333,120.000000,1
Sergio_G01_CNS-LLF5HT7Y0,cpeeg02,offmed_offstim,20260323_155934,2026-03-23 16:01:20.650854,NaN,3,probe,POSTDIG_FIX1_OFF,156,2026-03-23 16:05:29.370905,248.678351,0.059582,,,,,,keyboard,after digit#1,"{""note"":""after digit#1"",""pd_used"":0}",2,0.008333,120.000000,1
Sergio_G01_CNS-LLF5HT7Y0,cpeeg02,offmed_offstim,20260323_155934,2026-03-23 16:01:20.650854,NaN,3,probe,DIGIT_RECALL_LINE_2,162,2026-03-23 16:05:29.430839,248.737933,1.818431,,2,,,,keyboard,next recall question,"{""value"":2,""note"":""next recall question"",""pd_used"":1}",2,0.008333,120.000000,1
Sergio_G01_CNS-LLF5HT7Y0,cpeeg02,offmed_offstim,20260323_155934,2026-03-23 16:01:20.650854,NaN,3,probe,PROBE_DIGIT_OK_2,71,2026-03-23 16:05:31.745188,250.556365,0.589571,9.933673,slot#2,NaN,,,keyboard,probe_digit#2,"{""value"":""slot#2"",""entered"":null,""rt"":9.9336734999997134,""note"":""probe_digit#2""}",2,0.008333,120.000000,1
Sergio_G01_CNS-LLF5HT7Y0,cpeeg02,offmed_offstim,20260323_155934,2026-03-23 16:01:20.650854,NaN,3,probe,DIGIT2_OFF,147,2026-03-23 16:05:31.843010,251.145935,0.000000,,0,,,,keyboard,digit#2 off,"{""value"":0,""note"":""digit#2 off"",""pd_used"":0}",2,0.008333,120.000000,1
Sergio_G01_CNS-LLF5HT7Y0,cpeeg02,offmed_offstim,20260323_155934,2026-03-23 16:01:20.650854,NaN,3,probe,POSTDIG_FIX2_ON,152,2026-03-23 16:05:31.844925,251.145935,1.749226,,,,,,keyboard,after digit#2,"{""note"":""after digit#2""}",2,0.008333,120.000000,1
Sergio_G01_CNS-LLF5HT7Y0,cpeeg02,offmed_offstim,20260323_155934,2026-03-23 16:01:20.650854,NaN,3,probe,POSTDIG_FIX2_OFF,157,2026-03-23 16:05:33.590247,252.895161,0.061888,,,,,,keyboard,after digit#2,"{""note"":""after digit#2"",""pd_used"":0}",2,0.008333,120.000000,1
Sergio_G01_CNS-LLF5HT7Y0,cpeeg02,offmed_offstim,20260323_155934,2026-03-23 16:01:20.650854,NaN,3,probe,DIGIT_RECALL_LINE_3,163,2026-03-23 16:05:33.651645,252.957049,1.312714,,3,,,,keyboard,next recall question,"{""value"":3,""note"":""next recall question"",""pd_used"":1}",2,0.008333,120.000000,1
Sergio_G01_CNS-LLF5HT7Y0,cpeeg02,offmed_offstim,20260323_155934,2026-03-23 16:01:20.650854,NaN,3,probe,PROBE_DIGIT_OK_3,71,2026-03-23 16:05:35.465226,254.269763,0.594362,13.647072,slot#3,NaN,,,keyboard,probe_digit#3,"{""value"":""slot#3"",""entered"":null,""rt"":13.647072299998399,""note"":""probe_digit#3""}",2,0.008333,120.000000,1
Sergio_G01_CNS-LLF5HT7Y0,cpeeg02,offmed_offstim,20260323_155934,2026-03-23 16:01:20.650854,NaN,3,probe,DIGIT3_OFF,148,2026-03-23 16:05:35.562105,254.864125,0.000000,,0,,,,keyboard,digit#3 off,"{""value"":0,""note"":""digit#3 off"",""pd_used"":0}",2,0.008333,120.000000,1
Sergio_G01_CNS-LLF5HT7Y0,cpeeg02,offmed_offstim,20260323_155934,2026-03-23 16:01:20.650854,NaN,3,probe,POSTDIG_FIX3_ON,153,2026-03-23 16:05:35.564454,254.864125,1.988122,,,,,,keyboard,after digit#3,"{""note"":""after digit#3""}",2,0.008333,120.000000,1
Sergio_G01_CNS-LLF5HT7Y0,cpeeg02,offmed_offstim,20260323_155934,2026-03-23 16:01:20.650854,NaN,3,probe,POSTDIG_FIX3_OFF,158,2026-03-23 16:05:37.548752,256.852247,0.063521,,,,,,keyboard,after digit#3,"{""note"":""after digit#3"",""pd_used"":0}",2,0.008333,120.000000,1
Sergio_G01_CNS-LLF5HT7Y0,cpeeg02,offmed_offstim,20260323_155934,2026-03-23 16:01:20.650854,NaN,3,probe,DIGIT_RECALL_LINE_4,164,2026-03-23 16:05:37.610343,256.915768,0.918458,,4,,,,keyboard,next recall question,"{""value"":4,""note"":""next recall question"",""pd_used"":1}",2,0.008333,120.000000,1
Sergio_G01_CNS-LLF5HT7Y0,cpeeg02,offmed_offstim,20260323_155934,2026-03-23 16:01:20.650854,NaN,3,probe,PROBE_DIGIT_OK_4,71,2026-03-23 16:05:39.024070,257.834225,0.590628,17.211534,slot#4,NaN,,,keyboard,probe_digit#4,"{""value"":""slot#4"",""entered"":null,""rt"":17.211534300000494,""note"":""probe_digit#4""}",2,0.008333,120.000000,1
Sergio_G01_CNS-LLF5HT7Y0,cpeeg02,offmed_offstim,20260323_155934,2026-03-23 16:01:20.650854,NaN,3,probe,DIGIT4_OFF,149,2026-03-23 16:05:39.122670,258.424854,0.000000,,0,,,,keyboard,digit#4 off,"{""value"":0,""note"":""digit#4 off"",""pd_used"":0}",2,0.008333,120.000000,1
Sergio_G01_CNS-LLF5HT7Y0,cpeeg02,offmed_offstim,20260323_155934,2026-03-23 16:01:20.650854,NaN,3,probe,POSTDIG_FIX4_ON,154,2026-03-23 16:05:39.124810,258.424854,1.732036,,,,,,keyboard,after digit#4,"{""note"":""after digit#4""}",2,0.008333,120.000000,1
Sergio_G01_CNS-LLF5HT7Y0,cpeeg02,offmed_offstim,20260323_155934,2026-03-23 16:01:20.650854,NaN,3,probe,POSTDIG_FIX4_OFF,159,2026-03-23 16:05:40.852739,260.156890,0.062900,,,,,,keyboard,after digit#4,"{""note"":""after digit#4"",""pd_used"":0}",2,0.008333,120.000000,1
Sergio_G01_CNS-LLF5HT7Y0,cpeeg02,offmed_offstim,20260323_155934,2026-03-23 16:01:20.650854,NaN,3,probe,DIGIT_RECALL_LINE_5,165,2026-03-23 16:05:40.914842,260.219789,2.823573,,5,,,,keyboard,next recall question,"{""value"":5,""note"":""next recall question"",""pd_used"":1}",2,0.008333,120.000000,1
Sergio_G01_CNS-LLF5HT7Y0,cpeeg02,offmed_offstim,20260323_155934,2026-03-23 16:01:20.650854,NaN,3,probe,PROBE_DIGIT_OK_5,71,2026-03-23 16:05:44.046369,263.043362,0.404079,22.420671,slot#5,NaN,,,keyboard,probe_digit#5,"{""value"":""slot#5"",""entered"":null,""rt"":22.420671100000618,""note"":""probe_digit#5""}",2,0.008333,120.000000,1
Sergio_G01_CNS-LLF5HT7Y0,cpeeg02,offmed_offstim,20260323_155934,2026-03-23 16:01:20.650854,NaN,3,probe,DIGIT5_OFF,150,2026-03-23 16:05:44.145302,263.447441,0.000000,,0,,,,keyboard,digit#5 off,"{""value"":0,""note"":""digit#5 off"",""pd_used"":0}",2,0.008333,120.000000,1
Sergio_G01_CNS-LLF5HT7Y0,cpeeg02,offmed_offstim,20260323_155934,2026-03-23 16:01:20.650854,NaN,3,probe,POSTDIG_FIX5_ON,155,2026-03-23 16:05:44.147655,263.447441,3.382486,,,,,,keyboard,after digit#5,"{""note"":""after digit#5""}",2,0.008333,120.000000,1
Sergio_G01_CNS-LLF5HT7Y0,cpeeg02,offmed_offstim,20260323_155934,2026-03-23 16:01:20.650854,NaN,3,probe,POSTDIG_FIX5_OFF,160,2026-03-23 16:05:47.525707,266.829927,0.053202,,,,,,keyboard,after digit#5,"{""note"":""after digit#5"",""pd_used"":0}",2,0.008333,120.000000,1
Sergio_G01_CNS-LLF5HT7Y0,cpeeg02,offmed_offstim,20260323_155934,2026-03-23 16:01:20.650854,NaN,3,probe,PROBE_DONE,73,2026-03-23 16:05:47.534696,266.883129,0.002171,,,,,,keyboard,probe complete,"{""value"":"""",""note"":""probe complete""}",2,0.008333,120.000000,1
Sergio_G01_CNS-LLF5HT7Y0,cpeeg02,offmed_offstim,20260323_155934,2026-03-23 16:01:20.650854,NaN,3,probe,TRIAL_END,21,2026-03-23 16:05:47.536483,266.885300,0.044760,,,,,,keyboard,,{},2,0.008333,120.000000,1
Sergio_G01_CNS-LLF5HT7Y0,cpeeg02,offmed_offstim,20260323_155934,2026-03-23 16:01:20.650854,NaN,4,probe,TRIAL_CHANGE,22,2026-03-23 16:05:47.582185,266.930060,0.003071,,,,,,keyboard,trial transition,"{""note"":""trial transition""}",2,0.008333,120.000000,1
Sergio_G01_CNS-LLF5HT7Y0,cpeeg02,offmed_offstim,20260323_155934,2026-03-23 16:01:20.650854,NaN,4,probe,TRIAL_START,20,2026-03-23 16:05:47.584799,266.933131,0.058661,,,,,,keyboard,,{},2,0.008333,120.000000,1
Sergio_G01_CNS-LLF5HT7Y0,cpeeg02,offmed_offstim,20260323_155934,2026-03-23 16:01:20.650854,NaN,4,fix1,FIX1_ON,30,2026-03-23 16:05:47.686946,266.991792,3.544841,,,,,,keyboard,,"{""pd_used"":0}",2,0.008333,120.000000,1
Sergio_G01_CNS-LLF5HT7Y0,cpeeg02,offmed_offstim,20260323_155934,2026-03-23 16:01:20.650854,NaN,4,fix1,FIX1_OFF,31,2026-03-23 16:05:51.232245,270.536633,0.055511,,,,,,keyboard,,"{""pd_used"":0}",2,0.008333,120.000000,1
Sergio_G01_CNS-LLF5HT7Y0,cpeeg02,offmed_offstim,20260323_155934,2026-03-23 16:01:20.650854,NaN,4,digit,DIGIT1_ON,141,2026-03-23 16:05:51.287979,270.592144,0.556651,,2,,,,keyboard,digit#1 shown,"{""value"":2,""note"":""digit#1 shown"",""pd_used"":1}",2,0.008333,120.000000,1
Sergio_G01_CNS-LLF5HT7Y0,cpeeg02,offmed_offstim,20260323_155934,2026-03-23 16:01:20.650854,NaN,4,digit,DIGIT1_OFF,146,2026-03-23 16:05:51.844403,271.148795,0.000000,,2,,,,keyboard,digit#1 off,"{""value"":2,""note"":""digit#1 off"",""pd_used"":0}",2,0.008333,120.000000,1
Sergio_G01_CNS-LLF5HT7Y0,cpeeg02,offmed_offstim,20260323_155934,2026-03-23 16:01:20.650854,NaN,4,digit,POSTDIG_FIX1_ON,151,2026-03-23 16:05:51.846353,271.148795,1.862592,,,,,,keyboard,after digit#1,"{""note"":""after digit#1""}",2,0.008333,120.000000,1
Sergio_G01_CNS-LLF5HT7Y0,cpeeg02,offmed_offstim,20260323_155934,2026-03-23 16:01:20.650854,NaN,4,digit,POSTDIG_FIX1_OFF,156,2026-03-23 16:05:53.708211,273.011387,0.057118,,,,,,keyboard,after digit#1,"{""note"":""after digit#1"",""pd_used"":0}",2,0.008333,120.000000,1
Sergio_G01_CNS-LLF5HT7Y0,cpeeg02,offmed_offstim,20260323_155934,2026-03-23 16:01:20.650854,NaN,4,digit,DIGIT2_ON,142,2026-03-23 16:05:53.764717,273.068505,0.556273,,6,,,,keyboard,digit#2 shown,"{""value"":6,""note"":""digit#2 shown"",""pd_used"":1}",2,0.008333,120.000000,1
Sergio_G01_CNS-LLF5HT7Y0,cpeeg02,offmed_offstim,20260323_155934,2026-03-23 16:01:20.650854,NaN,4,digit,DIGIT2_OFF,147,2026-03-23 16:05:54.320895,273.624779,0.000000,,6,,,,keyboard,digit#2 off,"{""value"":6,""note"":""digit#2 off"",""pd_used"":0}",2,0.008333,120.000000,1
Sergio_G01_CNS-LLF5HT7Y0,cpeeg02,offmed_offstim,20260323_155934,2026-03-23 16:01:20.650854,NaN,4,digit,POSTDIG_FIX2_ON,152,2026-03-23 16:05:54.323012,273.624779,1.818779,,,,,,keyboard,after digit#2,"{""note"":""after digit#2""}",2,0.008333,120.000000,1
Sergio_G01_CNS-LLF5HT7Y0,cpeeg02,offmed_offstim,20260323_155934,2026-03-23 16:01:20.650854,NaN,4,digit,POSTDIG_FIX2_OFF,157,2026-03-23 16:05:56.139892,275.443557,0.056212,,,,,,keyboard,after digit#2,"{""note"":""after digit#2"",""pd_used"":0}",2,0.008333,120.000000,1
Sergio_G01_CNS-LLF5HT7Y0,cpeeg02,offmed_offstim,20260323_155934,2026-03-23 16:01:20.650854,NaN,4,digit,DIGIT3_ON,143,2026-03-23 16:05:56.196125,275.499769,0.556922,,4,,,,keyboard,digit#3 shown,"{""value"":4,""note"":""digit#3 shown"",""pd_used"":1}",2,0.008333,120.000000,1
Sergio_G01_CNS-LLF5HT7Y0,cpeeg02,offmed_offstim,20260323_155934,2026-03-23 16:01:20.650854,NaN,4,digit,DIGIT3_OFF,148,2026-03-23 16:05:56.752403,276.056691,0.000000,,4,,,,keyboard,digit#3 off,"{""value"":4,""note"":""digit#3 off"",""pd_used"":0}",2,0.008333,120.000000,1
Sergio_G01_CNS-LLF5HT7Y0,cpeeg02,offmed_offstim,20260323_155934,2026-03-23 16:01:20.650854,NaN,4,digit,POSTDIG_FIX3_ON,153,2026-03-23 16:05:56.754782,276.056691,1.695850,,,,,,keyboard,after digit#3,"{""note"":""after digit#3""}",2,0.008333,120.000000,1
Sergio_G01_CNS-LLF5HT7Y0,cpeeg02,offmed_offstim,20260323_155934,2026-03-23 16:01:20.650854,NaN,4,digit,POSTDIG_FIX3_OFF,158,2026-03-23 16:05:58.448789,277.752541,0.055665,,,,,,keyboard,after digit#3,"{""note"":""after digit#3"",""pd_used"":0}",2,0.008333,120.000000,1
Sergio_G01_CNS-LLF5HT7Y0,cpeeg02,offmed_offstim,20260323_155934,2026-03-23 16:01:20.650854,NaN,4,digit,DIGIT4_ON,144,2026-03-23 16:05:58.504075,277.808206,0.557870,,8,,,,keyboard,digit#4 shown,"{""value"":8,""note"":""digit#4 shown"",""pd_used"":1}",2,0.008333,120.000000,1
Sergio_G01_CNS-LLF5HT7Y0,cpeeg02,offmed_offstim,20260323_155934,2026-03-23 16:01:20.650854,NaN,4,digit,DIGIT4_OFF,149,2026-03-23 16:05:59.061776,278.366077,0.000000,,8,,,,keyboard,digit#4 off,"{""value"":8,""note"":""digit#4 off"",""pd_used"":0}",2,0.008333,120.000000,1
Sergio_G01_CNS-LLF5HT7Y0,cpeeg02,offmed_offstim,20260323_155934,2026-03-23 16:01:20.650854,NaN,4,digit,POSTDIG_FIX4_ON,154,2026-03-23 16:05:59.064079,278.366077,1.834661,,,,,,keyboard,after digit#4,"{""note"":""after digit#4""}",2,0.008333,120.000000,1
Sergio_G01_CNS-LLF5HT7Y0,cpeeg02,offmed_offstim,20260323_155934,2026-03-23 16:01:20.650854,NaN,4,digit,POSTDIG_FIX4_OFF,159,2026-03-23 16:06:00.896762,280.200737,0.056861,,,,,,keyboard,after digit#4,"{""note"":""after digit#4"",""pd_used"":0}",2,0.008333,120.000000,1
Sergio_G01_CNS-LLF5HT7Y0,cpeeg02,offmed_offstim,20260323_155934,2026-03-23 16:01:20.650854,NaN,4,digit,DIGIT5_ON,145,2026-03-23 16:06:00.953304,280.257598,0.557072,,8,,,,keyboard,digit#5 shown,"{""value"":8,""note"":""digit#5 shown"",""pd_used"":1}",2,0.008333,120.000000,1
Sergio_G01_CNS-LLF5HT7Y0,cpeeg02,offmed_offstim,20260323_155934,2026-03-23 16:01:20.650854,NaN,4,digit,DIGIT5_OFF,150,2026-03-23 16:06:01.510884,280.814670,0.000000,,8,,,,keyboard,digit#5 off,"{""value"":8,""note"":""digit#5 off"",""pd_used"":0}",2,0.008333,120.000000,1
Sergio_G01_CNS-LLF5HT7Y0,cpeeg02,offmed_offstim,20260323_155934,2026-03-23 16:01:20.650854,NaN,4,digit,POSTDIG_FIX5_ON,155,2026-03-23 16:06:01.513549,280.814670,3.328454,,,,,,keyboard,after digit#5,"{""note"":""after digit#5""}",2,0.008333,120.000000,1
Sergio_G01_CNS-LLF5HT7Y0,cpeeg02,offmed_offstim,20260323_155934,2026-03-23 16:01:20.650854,NaN,4,digit,POSTDIG_FIX5_OFF,160,2026-03-23 16:06:04.839016,284.143124,0.062952,,,,,,keyboard,after digit#5,"{""note"":""after digit#5"",""pd_used"":0}",2,0.008333,120.000000,1
Sergio_G01_CNS-LLF5HT7Y0,cpeeg02,offmed_offstim,20260323_155934,2026-03-23 16:01:20.650854,NaN,4,distractor,DISTRACTOR_ON,50,2026-03-23 16:06:04.902016,284.206075,6.959875,,6+7=11,,,,keyboard,,"{""value"":""6+7=11"",""isCorrectTruth"":false,""trueSum"":13,""pd_used"":1}",2,0.008333,120.000000,1
Sergio_G01_CNS-LLF5HT7Y0,cpeeg02,offmed_offstim,20260323_155934,2026-03-23 16:01:20.650854,NaN,4,distractor,DISTRACTOR_ANS,51,2026-03-23 16:06:12.168414,291.165951,0.000000,6.959875,6+7=11,F,1,,keyboard,key= (False),"{""value"":""6+7=11"",""entered"":""F"",""rt"":6.9598751999983506,""correct"":1,""note"":""key= (False)"",""truth"":false,""trueSum"":13,""shownSum"":11,""a"":6,""b"":7}",2,0.008333,120.000000,1
Sergio_G01_CNS-LLF5HT7Y0,cpeeg02,offmed_offstim,20260323_155934,2026-03-23 16:01:20.650854,NaN,4,distractor,ANS_CORRECT,100,2026-03-23 16:06:12.216292,291.165951,0.409247,,,,,,keyboard,,{},2,0.008333,120.000000,1
Sergio_G01_CNS-LLF5HT7Y0,cpeeg02,offmed_offstim,20260323_155934,2026-03-23 16:01:20.650854,NaN,4,distractor,DISTRACTOR_OFF,52,2026-03-23 16:06:12.270461,291.575198,0.000000,,,,,,keyboard,,"{""pd_used"":0}",2,0.008333,120.000000,1
Sergio_G01_CNS-LLF5HT7Y0,cpeeg02,offmed_offstim,20260323_155934,2026-03-23 16:01:20.650854,NaN,4,distractor,FIX2_ON,60,2026-03-23 16:06:12.273581,291.575198,3.521835,,,,,,keyboard,immediate after response,"{""note"":""immediate after response""}",2,0.008333,120.000000,1
Sergio_G01_CNS-LLF5HT7Y0,cpeeg02,offmed_offstim,20260323_155934,2026-03-23 16:01:20.650854,NaN,4,fix2,FIX2_OFF,61,2026-03-23 16:06:15.793589,295.097033,0.058886,,,,,,keyboard,,"{""pd_used"":0}",2,0.008333,120.000000,1
Sergio_G01_CNS-LLF5HT7Y0,cpeeg02,offmed_offstim,20260323_155934,2026-03-23 16:01:20.650854,NaN,4,probe,DIGIT_RECALL_LINE_1,161,2026-03-23 16:06:15.850475,295.155919,1.509465,,1,,,,keyboard,first recall question,"{""value"":1,""note"":""first recall question"",""pd_used"":1}",2,0.008333,120.000000,1
Sergio_G01_CNS-LLF5HT7Y0,cpeeg02,offmed_offstim,20260323_155934,2026-03-23 16:01:20.650854,NaN,4,probe,PROBE_DIGIT_OK_1,71,2026-03-23 16:06:17.855535,296.665384,0.591547,1.520401,slot#1,NaN,,,keyboard,probe_digit#1,"{""value"":""slot#1"",""entered"":null,""rt"":1.5204006999992998,""note"":""probe_digit#1""}",2,0.008333,120.000000,1
Sergio_G01_CNS-LLF5HT7Y0,cpeeg02,offmed_offstim,20260323_155934,2026-03-23 16:01:20.650854,NaN,4,probe,DIGIT1_OFF,146,2026-03-23 16:06:17.954537,297.256931,0.000000,,8,,,,keyboard,digit#1 off,"{""value"":8,""note"":""digit#1 off"",""pd_used"":0}",2,0.008333,120.000000,1
Sergio_G01_CNS-LLF5HT7Y0,cpeeg02,offmed_offstim,20260323_155934,2026-03-23 16:01:20.650854,NaN,4,probe,POSTDIG_FIX1_ON,151,2026-03-23 16:06:17.956604,297.256931,1.830285,,,,,,keyboard,after digit#1,"{""note"":""after digit#1""}",2,0.008333,120.000000,1
Sergio_G01_CNS-LLF5HT7Y0,cpeeg02,offmed_offstim,20260323_155934,2026-03-23 16:01:20.650854,NaN,4,probe,POSTDIG_FIX1_OFF,156,2026-03-23 16:06:19.782269,299.087217,0.061300,,,,,,keyboard,after digit#1,"{""note"":""after digit#1"",""pd_used"":0}",2,0.008333,120.000000,1
Sergio_G01_CNS-LLF5HT7Y0,cpeeg02,offmed_offstim,20260323_155934,2026-03-23 16:01:20.650854,NaN,4,probe,DIGIT_RECALL_LINE_2,162,2026-03-23 16:06:19.844310,299.148516,1.100663,,2,,,,keyboard,next recall question,"{""value"":2,""note"":""next recall question"",""pd_used"":1}",2,0.008333,120.000000,1
Sergio_G01_CNS-LLF5HT7Y0,cpeeg02,offmed_offstim,20260323_155934,2026-03-23 16:01:20.650854,NaN,4,probe,PROBE_DIGIT_OK_2,71,2026-03-23 16:06:21.333634,300.249180,0.486244,5.104197,slot#2,NaN,,,keyboard,probe_digit#2,"{""value"":""slot#2"",""entered"":null,""rt"":5.1041965999975218,""note"":""probe_digit#2""}",2,0.008333,120.000000,1
Sergio_G01_CNS-LLF5HT7Y0,cpeeg02,offmed_offstim,20260323_155934,2026-03-23 16:01:20.650854,NaN,4,probe,DIGIT2_OFF,147,2026-03-23 16:06:21.430711,300.735424,0.000000,,8,,,,keyboard,digit#2 off,"{""value"":8,""note"":""digit#2 off"",""pd_used"":0}",2,0.008333,120.000000,1
Sergio_G01_CNS-LLF5HT7Y0,cpeeg02,offmed_offstim,20260323_155934,2026-03-23 16:01:20.650854,NaN,4,probe,POSTDIG_FIX2_ON,152,2026-03-23 16:06:21.431755,300.735424,1.843054,,,,,,keyboard,after digit#2,"{""note"":""after digit#2""}",2,0.008333,120.000000,1
Sergio_G01_CNS-LLF5HT7Y0,cpeeg02,offmed_offstim,20260323_155934,2026-03-23 16:01:20.650854,NaN,4,probe,POSTDIG_FIX2_OFF,157,2026-03-23 16:06:23.273420,302.578478,0.062032,,,,,,keyboard,after digit#2,"{""note"":""after digit#2"",""pd_used"":0}",2,0.008333,120.000000,1
Sergio_G01_CNS-LLF5HT7Y0,cpeeg02,offmed_offstim,20260323_155934,2026-03-23 16:01:20.650854,NaN,4,probe,DIGIT_RECALL_LINE_3,163,2026-03-23 16:06:23.336190,302.640510,0.747323,,3,,,,keyboard,next recall question,"{""value"":3,""note"":""next recall question"",""pd_used"":1}",2,0.008333,120.000000,1
Sergio_G01_CNS-LLF5HT7Y0,cpeeg02,offmed_offstim,20260323_155934,2026-03-23 16:01:20.650854,NaN,4,probe,PROBE_DIGIT_OK_3,71,2026-03-23 16:06:24.497240,303.387833,0.507262,8.242850,slot#3,NaN,,,keyboard,probe_digit#3,"{""value"":""slot#3"",""entered"":null,""rt"":8.2428498999979638,""note"":""probe_digit#3""}",2,0.008333,120.000000,1
Sergio_G01_CNS-LLF5HT7Y0,cpeeg02,offmed_offstim,20260323_155934,2026-03-23 16:01:20.650854,NaN,4,probe,DIGIT3_OFF,148,2026-03-23 16:06:24.592409,303.895095,0.000000,,8,,,,keyboard,digit#3 off,"{""value"":8,""note"":""digit#3 off"",""pd_used"":0}",2,0.008333,120.000000,1
Sergio_G01_CNS-LLF5HT7Y0,cpeeg02,offmed_offstim,20260323_155934,2026-03-23 16:01:20.650854,NaN,4,probe,POSTDIG_FIX3_ON,153,2026-03-23 16:06:24.594072,303.895095,1.924409,,,,,,keyboard,after digit#3,"{""note"":""after digit#3""}",2,0.008333,120.000000,1
Sergio_G01_CNS-LLF5HT7Y0,cpeeg02,offmed_offstim,20260323_155934,2026-03-23 16:01:20.650854,NaN,4,probe,POSTDIG_FIX3_OFF,158,2026-03-23 16:06:26.515174,305.819504,0.062793,,,,,,keyboard,after digit#3,"{""note"":""after digit#3"",""pd_used"":0}",2,0.008333,120.000000,1
Sergio_G01_CNS-LLF5HT7Y0,cpeeg02,offmed_offstim,20260323_155934,2026-03-23 16:01:20.650854,NaN,4,probe,DIGIT_RECALL_LINE_4,164,2026-03-23 16:06:26.577803,305.882297,0.912875,,4,,,,keyboard,next recall question,"{""value"":4,""note"":""next recall question"",""pd_used"":1}",2,0.008333,120.000000,1
Sergio_G01_CNS-LLF5HT7Y0,cpeeg02,offmed_offstim,20260323_155934,2026-03-23 16:01:20.650854,NaN,4,probe,PROBE_DIGIT_OK_4,71,2026-03-23 16:06:27.783833,306.795172,0.389891,11.650188,slot#4,NaN,,,keyboard,probe_digit#4,"{""value"":""slot#4"",""entered"":null,""rt"":11.650188399999024,""note"":""probe_digit#4""}",2,0.008333,120.000000,1
Sergio_G01_CNS-LLF5HT7Y0,cpeeg02,offmed_offstim,20260323_155934,2026-03-23 16:01:20.650854,NaN,4,probe,DIGIT4_OFF,149,2026-03-23 16:06:27.883082,307.185063,0.000000,,8,,,,keyboard,digit#4 off,"{""value"":8,""note"":""digit#4 off"",""pd_used"":0}",2,0.008333,120.000000,1
Sergio_G01_CNS-LLF5HT7Y0,cpeeg02,offmed_offstim,20260323_155934,2026-03-23 16:01:20.650854,NaN,4,probe,POSTDIG_FIX4_ON,154,2026-03-23 16:06:27.885568,307.185063,2.044948,,,,,,keyboard,after digit#4,"{""note"":""after digit#4""}",2,0.008333,120.000000,1
Sergio_G01_CNS-LLF5HT7Y0,cpeeg02,offmed_offstim,20260323_155934,2026-03-23 16:01:20.650854,NaN,4,probe,POSTDIG_FIX4_OFF,159,2026-03-23 16:06:29.926032,309.230011,0.062415,,,,,,keyboard,after digit#4,"{""note"":""after digit#4"",""pd_used"":0}",2,0.008333,120.000000,1
Sergio_G01_CNS-LLF5HT7Y0,cpeeg02,offmed_offstim,20260323_155934,2026-03-23 16:01:20.650854,NaN,4,probe,DIGIT_RECALL_LINE_5,165,2026-03-23 16:06:29.987825,309.292426,0.725756,,5,,,,keyboard,next recall question,"{""value"":5,""note"":""next recall question"",""pd_used"":1}",2,0.008333,120.000000,1
Sergio_G01_CNS-LLF5HT7Y0,cpeeg02,offmed_offstim,20260323_155934,2026-03-23 16:01:20.650854,NaN,4,probe,PROBE_DIGIT_OK_5,71,2026-03-23 16:06:31.034016,310.018182,0.416871,14.873199,slot#5,NaN,,,keyboard,probe_digit#5,"{""value"":""slot#5"",""entered"":null,""rt"":14.873198699999193,""note"":""probe_digit#5""}",2,0.008333,120.000000,1
Sergio_G01_CNS-LLF5HT7Y0,cpeeg02,offmed_offstim,20260323_155934,2026-03-23 16:01:20.650854,NaN,4,probe,DIGIT5_OFF,150,2026-03-23 16:06:31.132144,310.435053,0.000000,,8,,,,keyboard,digit#5 off,"{""value"":8,""note"":""digit#5 off"",""pd_used"":0}",2,0.008333,120.000000,1
Sergio_G01_CNS-LLF5HT7Y0,cpeeg02,offmed_offstim,20260323_155934,2026-03-23 16:01:20.650854,NaN,4,probe,POSTDIG_FIX5_ON,155,2026-03-23 16:06:31.134423,310.435053,3.401609,,,,,,keyboard,after digit#5,"{""note"":""after digit#5""}",2,0.008333,120.000000,1
Sergio_G01_CNS-LLF5HT7Y0,cpeeg02,offmed_offstim,20260323_155934,2026-03-23 16:01:20.650854,NaN,4,probe,POSTDIG_FIX5_OFF,160,2026-03-23 16:06:34.532929,313.836662,0.056197,,,,,,keyboard,after digit#5,"{""note"":""after digit#5"",""pd_used"":0}",2,0.008333,120.000000,1
Sergio_G01_CNS-LLF5HT7Y0,cpeeg02,offmed_offstim,20260323_155934,2026-03-23 16:01:20.650854,NaN,4,probe,PROBE_DONE,73,2026-03-23 16:06:34.544472,313.892859,0.002117,,,,,,keyboard,probe complete,"{""value"":"""",""note"":""probe complete""}",2,0.008333,120.000000,1
Sergio_G01_CNS-LLF5HT7Y0,cpeeg02,offmed_offstim,20260323_155934,2026-03-23 16:01:20.650854,NaN,4,probe,TRIAL_END,21,2026-03-23 16:06:34.546314,313.894976,0.045346,,,,,,keyboard,,{},2,0.008333,120.000000,1
Sergio_G01_CNS-LLF5HT7Y0,cpeeg02,offmed_offstim,20260323_155934,2026-03-23 16:01:20.650854,NaN,5,probe,TRIAL_CHANGE,22,2026-03-23 16:06:34.591781,313.940322,0.001941,,,,,,keyboard,trial transition,"{""note"":""trial transition""}",2,0.008333,120.000000,1
Sergio_G01_CNS-LLF5HT7Y0,cpeeg02,offmed_offstim,20260323_155934,2026-03-23 16:01:20.650854,NaN,5,probe,TRIAL_START,20,2026-03-23 16:06:34.593494,313.942263,0.059838,,,,,,keyboard,,{},2,0.008333,120.000000,1
Sergio_G01_CNS-LLF5HT7Y0,cpeeg02,offmed_offstim,20260323_155934,2026-03-23 16:01:20.650854,NaN,5,fix1,FIX1_ON,30,2026-03-23 16:06:34.697331,314.002101,3.174305,,,,,,keyboard,,"{""pd_used"":0}",2,0.008333,120.000000,1
Sergio_G01_CNS-LLF5HT7Y0,cpeeg02,offmed_offstim,20260323_155934,2026-03-23 16:01:20.650854,NaN,5,fix1,FIX1_OFF,31,2026-03-23 16:06:37.872417,317.176406,0.056231,,,,,,keyboard,,"{""pd_used"":0}",2,0.008333,120.000000,1
Sergio_G01_CNS-LLF5HT7Y0,cpeeg02,offmed_offstim,20260323_155934,2026-03-23 16:01:20.650854,NaN,5,digit,DIGIT1_ON,141,2026-03-23 16:06:37.928321,317.232637,0.556072,,7,,,,keyboard,digit#1 shown,"{""value"":7,""note"":""digit#1 shown"",""pd_used"":1}",2,0.008333,120.000000,1
Sergio_G01_CNS-LLF5HT7Y0,cpeeg02,offmed_offstim,20260323_155934,2026-03-23 16:01:20.650854,NaN,5,digit,DIGIT1_OFF,146,2026-03-23 16:06:38.484597,317.788709,0.000000,,7,,,,keyboard,digit#1 off,"{""value"":7,""note"":""digit#1 off"",""pd_used"":0}",2,0.008333,120.000000,1
Sergio_G01_CNS-LLF5HT7Y0,cpeeg02,offmed_offstim,20260323_155934,2026-03-23 16:01:20.650854,NaN,5,digit,POSTDIG_FIX1_ON,151,2026-03-23 16:06:38.487200,317.788709,1.975017,,,,,,keyboard,after digit#1,"{""note"":""after digit#1""}",2,0.008333,120.000000,1
Sergio_G01_CNS-LLF5HT7Y0,cpeeg02,offmed_offstim,20260323_155934,2026-03-23 16:01:20.650854,NaN,5,digit,POSTDIG_FIX1_OFF,156,2026-03-23 16:06:40.460872,319.763726,0.058052,,,,,,keyboard,after digit#1,"{""note"":""after digit#1"",""pd_used"":0}",2,0.008333,120.000000,1
Sergio_G01_CNS-LLF5HT7Y0,cpeeg02,offmed_offstim,20260323_155934,2026-03-23 16:01:20.650854,NaN,5,digit,DIGIT2_ON,142,2026-03-23 16:06:40.516825,319.821778,0.556401,,8,,,,keyboard,digit#2 shown,"{""value"":8,""note"":""digit#2 shown"",""pd_used"":1}",2,0.008333,120.000000,1
Sergio_G01_CNS-LLF5HT7Y0,cpeeg02,offmed_offstim,20260323_155934,2026-03-23 16:01:20.650854,NaN,5,digit,DIGIT2_OFF,147,2026-03-23 16:06:41.073763,320.378179,0.000000,,8,,,,keyboard,digit#2 off,"{""value"":8,""note"":""digit#2 off"",""pd_used"":0}",2,0.008333,120.000000,1
Sergio_G01_CNS-LLF5HT7Y0,cpeeg02,offmed_offstim,20260323_155934,2026-03-23 16:01:20.650854,NaN,5,digit,POSTDIG_FIX2_ON,152,2026-03-23 16:06:41.076145,320.378179,1.728323,,,,,,keyboard,after digit#2,"{""note"":""after digit#2""}",2,0.008333,120.000000,1
Sergio_G01_CNS-LLF5HT7Y0,cpeeg02,offmed_offstim,20260323_155934,2026-03-23 16:01:20.650854,NaN,5,digit,POSTDIG_FIX2_OFF,157,2026-03-23 16:06:42.802142,322.106501,0.056274,,,,,,keyboard,after digit#2,"{""note"":""after digit#2"",""pd_used"":0}",2,0.008333,120.000000,1
Sergio_G01_CNS-LLF5HT7Y0,cpeeg02,offmed_offstim,20260323_155934,2026-03-23 16:01:20.650854,NaN,5,digit,DIGIT3_ON,143,2026-03-23 16:06:42.857839,322.162775,0.556350,,3,,,,keyboard,digit#3 shown,"{""value"":3,""note"":""digit#3 shown"",""pd_used"":1}",2,0.008333,120.000000,1
Sergio_G01_CNS-LLF5HT7Y0,cpeeg02,offmed_offstim,20260323_155934,2026-03-23 16:01:20.650854,NaN,5,digit,DIGIT3_OFF,148,2026-03-23 16:06:43.414831,322.719125,0.000000,,3,,,,keyboard,digit#3 off,"{""value"":3,""note"":""digit#3 off"",""pd_used"":0}",2,0.008333,120.000000,1
Sergio_G01_CNS-LLF5HT7Y0,cpeeg02,offmed_offstim,20260323_155934,2026-03-23 16:01:20.650854,NaN,5,digit,POSTDIG_FIX3_ON,153,2026-03-23 16:06:43.417254,322.719125,1.937813,,,,,,keyboard,after digit#3,"{""note"":""after digit#3""}",2,0.008333,120.000000,1
Sergio_G01_CNS-LLF5HT7Y0,cpeeg02,offmed_offstim,20260323_155934,2026-03-23 16:01:20.650854,NaN,5,digit,POSTDIG_FIX3_OFF,158,2026-03-23 16:06:45.352870,324.656938,0.056305,,,,,,keyboard,after digit#3,"{""note"":""after digit#3"",""pd_used"":0}",2,0.008333,120.000000,1
Sergio_G01_CNS-LLF5HT7Y0,cpeeg02,offmed_offstim,20260323_155934,2026-03-23 16:01:20.650854,NaN,5,digit,DIGIT4_ON,144,2026-03-23 16:06:45.409196,324.713243,0.557412,,2,,,,keyboard,digit#4 shown,"{""value"":2,""note"":""digit#4 shown"",""pd_used"":1}",2,0.008333,120.000000,1
Sergio_G01_CNS-LLF5HT7Y0,cpeeg02,offmed_offstim,20260323_155934,2026-03-23 16:01:20.650854,NaN,5,digit,DIGIT4_OFF,149,2026-03-23 16:06:45.966314,325.270655,0.000000,,2,,,,keyboard,digit#4 off,"{""value"":2,""note"":""digit#4 off"",""pd_used"":0}",2,0.008333,120.000000,1
Sergio_G01_CNS-LLF5HT7Y0,cpeeg02,offmed_offstim,20260323_155934,2026-03-23 16:01:20.650854,NaN,5,digit,POSTDIG_FIX4_ON,154,2026-03-23 16:06:45.968668,325.270655,1.719107,,,,,,keyboard,after digit#4,"{""note"":""after digit#4""}",2,0.008333,120.000000,1
Sergio_G01_CNS-LLF5HT7Y0,cpeeg02,offmed_offstim,20260323_155934,2026-03-23 16:01:20.650854,NaN,5,digit,POSTDIG_FIX4_OFF,159,2026-03-23 16:06:47.685582,326.989762,0.056432,,,,,,keyboard,after digit#4,"{""note"":""after digit#4"",""pd_used"":0}",2,0.008333,120.000000,1
Sergio_G01_CNS-LLF5HT7Y0,cpeeg02,offmed_offstim,20260323_155934,2026-03-23 16:01:20.650854,NaN,5,digit,DIGIT5_ON,145,2026-03-23 16:06:47.741681,327.046194,0.555962,,0,,,,keyboard,digit#5 shown,"{""value"":0,""note"":""digit#5 shown"",""pd_used"":1}",2,0.008333,120.000000,1
Sergio_G01_CNS-LLF5HT7Y0,cpeeg02,offmed_offstim,20260323_155934,2026-03-23 16:01:20.650854,NaN,5,digit,DIGIT5_OFF,150,2026-03-23 16:06:48.296784,327.602156,0.000000,,0,,,,keyboard,digit#5 off,"{""value"":0,""note"":""digit#5 off"",""pd_used"":0}",2,0.008333,120.000000,1
Sergio_G01_CNS-LLF5HT7Y0,cpeeg02,offmed_offstim,20260323_155934,2026-03-23 16:01:20.650854,NaN,5,digit,POSTDIG_FIX5_ON,155,2026-03-23 16:06:48.298603,327.602156,3.168592,,,,,,keyboard,after digit#5,"{""note"":""after digit#5""}",2,0.008333,120.000000,1
Sergio_G01_CNS-LLF5HT7Y0,cpeeg02,offmed_offstim,20260323_155934,2026-03-23 16:01:20.650854,NaN,5,digit,POSTDIG_FIX5_OFF,160,2026-03-23 16:06:51.466887,330.770748,0.057231,,,,,,keyboard,after digit#5,"{""note"":""after digit#5"",""pd_used"":0}",2,0.008333,120.000000,1
Sergio_G01_CNS-LLF5HT7Y0,cpeeg02,offmed_offstim,20260323_155934,2026-03-23 16:01:20.650854,NaN,5,distractor,DISTRACTOR_ON,50,2026-03-23 16:06:51.523744,330.827979,6.846342,,0+9=8,,,,keyboard,,"{""value"":""0+9=8"",""isCorrectTruth"":false,""trueSum"":9,""pd_used"":1}",2,0.008333,120.000000,1
Sergio_G01_CNS-LLF5HT7Y0,cpeeg02,offmed_offstim,20260323_155934,2026-03-23 16:01:20.650854,NaN,5,distractor,DISTRACTOR_ANS,51,2026-03-23 16:06:58.955174,337.674321,0.000000,6.846342,0+9=8,F,1,,keyboard,key= (False),"{""value"":""0+9=8"",""entered"":""F"",""rt"":6.8463415000005625,""correct"":1,""note"":""key= (False)"",""truth"":false,""trueSum"":9,""shownSum"":8,""a"":0,""b"":9}",2,0.008333,120.000000,1
Sergio_G01_CNS-LLF5HT7Y0,cpeeg02,offmed_offstim,20260323_155934,2026-03-23 16:01:20.650854,NaN,5,distractor,ANS_CORRECT,100,2026-03-23 16:06:59.001483,337.674321,0.685301,,,,,,keyboard,,{},2,0.008333,120.000000,1
Sergio_G01_CNS-LLF5HT7Y0,cpeeg02,offmed_offstim,20260323_155934,2026-03-23 16:01:20.650854,NaN,5,distractor,DISTRACTOR_OFF,52,2026-03-23 16:06:59.054755,338.359622,0.000000,,,,,,keyboard,,"{""pd_used"":0}",2,0.008333,120.000000,1
Sergio_G01_CNS-LLF5HT7Y0,cpeeg02,offmed_offstim,20260323_155934,2026-03-23 16:01:20.650854,NaN,5,distractor,FIX2_ON,60,2026-03-23 16:06:59.056832,338.359622,3.338841,,,,,,keyboard,immediate after response,"{""note"":""immediate after response""}",2,0.008333,120.000000,1
Sergio_G01_CNS-LLF5HT7Y0,cpeeg02,offmed_offstim,20260323_155934,2026-03-23 16:01:20.650854,NaN,5,fix2,FIX2_OFF,61,2026-03-23 16:07:02.395462,341.698463,0.057624,,,,,,keyboard,,"{""pd_used"":0}",2,0.008333,120.000000,1
Sergio_G01_CNS-LLF5HT7Y0,cpeeg02,offmed_offstim,20260323_155934,2026-03-23 16:01:20.650854,NaN,5,probe,DIGIT_RECALL_LINE_1,161,2026-03-23 16:07:02.450920,341.756087,3.097151,,1,,,,keyboard,first recall question,"{""value"":1,""note"":""first recall question"",""pd_used"":1}",2,0.008333,120.000000,1
Sergio_G01_CNS-LLF5HT7Y0,cpeeg02,offmed_offstim,20260323_155934,2026-03-23 16:01:20.650854,NaN,5,probe,PROBE_DIGIT_OK_1,71,2026-03-23 16:07:05.945140,344.853237,0.492960,3.106989,slot#1,NaN,,,keyboard,probe_digit#1,"{""value"":""slot#1"",""entered"":null,""rt"":3.106988999999885,""note"":""probe_digit#1""}",2,0.008333,120.000000,1
Sergio_G01_CNS-LLF5HT7Y0,cpeeg02,offmed_offstim,20260323_155934,2026-03-23 16:01:20.650854,NaN,5,probe,DIGIT1_OFF,146,2026-03-23 16:07:06.044612,345.346197,0.000000,,0,,,,keyboard,digit#1 off,"{""value"":0,""note"":""digit#1 off"",""pd_used"":0}",2,0.008333,120.000000,1
Sergio_G01_CNS-LLF5HT7Y0,cpeeg02,offmed_offstim,20260323_155934,2026-03-23 16:01:20.650854,NaN,5,probe,POSTDIG_FIX1_ON,151,2026-03-23 16:07:06.046836,345.346197,1.563887,,,,,,keyboard,after digit#1,"{""note"":""after digit#1""}",2,0.008333,120.000000,1
Sergio_G01_CNS-LLF5HT7Y0,cpeeg02,offmed_offstim,20260323_155934,2026-03-23 16:01:20.650854,NaN,5,probe,POSTDIG_FIX1_OFF,156,2026-03-23 16:07:07.604990,346.910084,0.061508,,,,,,keyboard,after digit#1,"{""note"":""after digit#1"",""pd_used"":0}",2,0.008333,120.000000,1
Sergio_G01_CNS-LLF5HT7Y0,cpeeg02,offmed_offstim,20260323_155934,2026-03-23 16:01:20.650854,NaN,5,probe,DIGIT_RECALL_LINE_2,162,2026-03-23 16:07:07.666626,346.971592,0.049694,,2,,,,keyboard,next recall question,"{""value"":2,""note"":""next recall question"",""pd_used"":1}",2,0.008333,120.000000,1
Sergio_G01_CNS-LLF5HT7Y0,cpeeg02,offmed_offstim,20260323_155934,2026-03-23 16:01:20.650854,NaN,5,probe,PROBE_DIGIT_OK_2,71,2026-03-23 16:07:08.105717,347.021285,0.487783,5.275037,slot#2,NaN,,,keyboard,probe_digit#2,"{""value"":""slot#2"",""entered"":null,""rt"":5.2750373999988369,""note"":""probe_digit#2""}",2,0.008333,120.000000,1
Sergio_G01_CNS-LLF5HT7Y0,cpeeg02,offmed_offstim,20260323_155934,2026-03-23 16:01:20.650854,NaN,5,probe,DIGIT2_OFF,147,2026-03-23 16:07:08.205546,347.509069,0.000000,,0,,,,keyboard,digit#2 off,"{""value"":0,""note"":""digit#2 off"",""pd_used"":0}",2,0.008333,120.000000,1
Sergio_G01_CNS-LLF5HT7Y0,cpeeg02,offmed_offstim,20260323_155934,2026-03-23 16:01:20.650854,NaN,5,probe,POSTDIG_FIX2_ON,152,2026-03-23 16:07:08.207912,347.509069,1.892435,,,,,,keyboard,after digit#2,"{""note"":""after digit#2""}",2,0.008333,120.000000,1
Sergio_G01_CNS-LLF5HT7Y0,cpeeg02,offmed_offstim,20260323_155934,2026-03-23 16:01:20.650854,NaN,5,probe,POSTDIG_FIX2_OFF,157,2026-03-23 16:07:10.097781,349.401503,0.063559,,,,,,keyboard,after digit#2,"{""note"":""after digit#2"",""pd_used"":0}",2,0.008333,120.000000,1
Sergio_G01_CNS-LLF5HT7Y0,cpeeg02,offmed_offstim,20260323_155934,2026-03-23 16:01:20.650854,NaN,5,probe,DIGIT_RECALL_LINE_3,163,2026-03-23 16:07:10.160821,349.465063,4.247769,,3,,,,keyboard,next recall question,"{""value"":3,""note"":""next recall question"",""pd_used"":1}",2,0.008333,120.000000,1
Sergio_G01_CNS-LLF5HT7Y0,cpeeg02,offmed_offstim,20260323_155934,2026-03-23 16:01:20.650854,NaN,5,probe,PROBE_DIGIT_OK_3,71,2026-03-23 16:07:14.737887,353.712832,0.423375,11.966583,slot#3,NaN,,,keyboard,probe_digit#3,"{""value"":""slot#3"",""entered"":null,""rt"":11.966583499997796,""note"":""probe_digit#3""}",2,0.008333,120.000000,1
Sergio_G01_CNS-LLF5HT7Y0,cpeeg02,offmed_offstim,20260323_155934,2026-03-23 16:01:20.650854,NaN,5,probe,DIGIT3_OFF,148,2026-03-23 16:07:14.832620,354.136206,0.000000,,0,,,,keyboard,digit#3 off,"{""value"":0,""note"":""digit#3 off"",""pd_used"":0}",2,0.008333,120.000000,1
Sergio_G01_CNS-LLF5HT7Y0,cpeeg02,offmed_offstim,20260323_155934,2026-03-23 16:01:20.650854,NaN,5,probe,POSTDIG_FIX3_ON,153,2026-03-23 16:07:14.833523,354.136206,1.623462,,,,,,keyboard,after digit#3,"{""note"":""after digit#3""}",2,0.008333,120.000000,1
Sergio_G01_CNS-LLF5HT7Y0,cpeeg02,offmed_offstim,20260323_155934,2026-03-23 16:01:20.650854,NaN,5,probe,POSTDIG_FIX3_OFF,158,2026-03-23 16:07:16.452534,355.759669,0.061509,,,,,,keyboard,after digit#3,"{""note"":""after digit#3"",""pd_used"":0}",2,0.008333,120.000000,1
Sergio_G01_CNS-LLF5HT7Y0,cpeeg02,offmed_offstim,20260323_155934,2026-03-23 16:01:20.650854,NaN,5,probe,DIGIT_RECALL_LINE_4,164,2026-03-23 16:07:16.513987,355.821178,1.502337,,4,,,,keyboard,next recall question,"{""value"":4,""note"":""next recall question"",""pd_used"":1}",2,0.008333,120.000000,1
Sergio_G01_CNS-LLF5HT7Y0,cpeeg02,offmed_offstim,20260323_155934,2026-03-23 16:01:20.650854,NaN,5,probe,PROBE_DIGIT_OK_4,71,2026-03-23 16:07:18.409879,357.323515,0.484637,15.577267,slot#4,NaN,,,keyboard,probe_digit#4,"{""value"":""slot#4"",""entered"":null,""rt"":15.577267099997698,""note"":""probe_digit#4""}",2,0.008333,120.000000,1
Sergio_G01_CNS-LLF5HT7Y0,cpeeg02,offmed_offstim,20260323_155934,2026-03-23 16:01:20.650854,NaN,5,probe,DIGIT4_OFF,149,2026-03-23 16:07:18.506174,357.808152,0.000000,,0,,,,keyboard,digit#4 off,"{""value"":0,""note"":""digit#4 off"",""pd_used"":0}",2,0.008333,120.000000,1
Sergio_G01_CNS-LLF5HT7Y0,cpeeg02,offmed_offstim,20260323_155934,2026-03-23 16:01:20.650854,NaN,5,probe,POSTDIG_FIX4_ON,154,2026-03-23 16:07:18.508016,357.808152,1.836501,,,,,,keyboard,after digit#4,"{""note"":""after digit#4""}",2,0.008333,120.000000,1
Sergio_G01_CNS-LLF5HT7Y0,cpeeg02,offmed_offstim,20260323_155934,2026-03-23 16:01:20.650854,NaN,5,probe,POSTDIG_FIX4_OFF,159,2026-03-23 16:07:20.340611,359.644653,0.061681,,,,,,keyboard,after digit#4,"{""note"":""after digit#4"",""pd_used"":0}",2,0.008333,120.000000,1
Sergio_G01_CNS-LLF5HT7Y0,cpeeg02,offmed_offstim,20260323_155934,2026-03-23 16:01:20.650854,NaN,5,probe,DIGIT_RECALL_LINE_5,165,2026-03-23 16:07:20.402445,359.706334,1.010854,,5,,,,keyboard,next recall question,"{""value"":5,""note"":""next recall question"",""pd_used"":1}",2,0.008333,120.000000,1
