file_version,subject,condition,session,task_start_time,block,trial,phase,event_name,event_code,wall_clock,t_rel_sec,duration_to_next,rt,value_shown,entered_value,correct,key_name,device,note,json,screen_index,ifi,refresh_hz,pd_used
Sergio_G01_CNS-LLF5HT7Y0,cpeeg02,offmed_offstim,20260312_133400,2026-03-12 13:34:36.575560,NaN,NaN,,MIC_NOISEFLOOR,6,2026-03-12 13:34:41.458204,4.881994,7.679735,,,,,,keyboard,,{},2,NaN,NaN,1
Sergio_G01_CNS-LLF5HT7Y0,cpeeg02,offmed_offstim,20260312_133400,2026-03-12 13:34:36.575560,NaN,NaN,,MIC_REC_SPEECH,7,2026-03-12 13:34:49.137923,12.561729,6.814412,,,,,,keyboard,,{},2,NaN,NaN,1
Sergio_G01_CNS-LLF5HT7Y0,cpeeg02,offmed_offstim,20260312_133400,2026-03-12 13:34:36.575560,NaN,NaN,,SESSION_START,1,2026-03-12 13:35:15.741221,39.162570,0.009345,,,,,,keyboard,,{},2,0.008333,120.000000,1
Sergio_G01_CNS-LLF5HT7Y0,cpeeg02,offmed_offstim,20260312_133400,2026-03-12 13:34:36.575560,1,NaN,,BLOCK_START,10,2026-03-12 13:35:15.748005,39.171915,0.082001,,,,,,keyboard,,{},2,0.008333,120.000000,1
Sergio_G01_CNS-LLF5HT7Y0,cpeeg02,offmed_offstim,20260312_133400,2026-03-12 13:34:36.575560,1,0,reading,START_PAGE_ON,4,2026-03-12 13:35:15.874368,39.253916,0.068109,,,,,,keyboard,,"{""pd_used"":0}",2,0.008333,120.000000,1
Sergio_G01_CNS-LLF5HT7Y0,cpeeg02,offmed_offstim,20260312_133400,2026-03-12 13:34:36.575560,1,0,reading,START_PAGE_ON,4,2026-03-12 13:35:15.874368,39.253916,170.158473,,,,,,keyboard,,"{""pd_used"":0}",2,0.008333,120.000000,1
Sergio_G01_CNS-LLF5HT7Y0,cpeeg02,offmed_offstim,20260312_133400,2026-03-12 13:34:36.575560,1,0,reading,START_PAGE_ON,4,2026-03-12 13:35:15.874368,39.253916,170.540494,,,,,,keyboard,,"{""pd_used"":0}",2,0.008333,120.000000,1
Sergio_G01_CNS-LLF5HT7Y0,cpeeg02,offmed_offstim,20260312_133400,2026-03-12 13:34:36.575560,1,0,reading,READING_START,23,2026-03-12 13:38:06.367527,209.794410,0.080069,,,,,,keyboard,,{},2,0.008333,120.000000,1
Sergio_G01_CNS-LLF5HT7Y0,cpeeg02,offmed_offstim,20260312_133400,2026-03-12 13:34:36.575560,1,0,reading,DIGIT_READ1_ON,101,2026-03-12 13:38:06.490487,209.874479,1.324273,,2,,,,keyboard,digit#1 shown,"{""value"":2,""note"":""digit#1 shown"",""pd_used"":1}",2,0.008333,120.000000,1
Sergio_G01_CNS-LLF5HT7Y0,cpeeg02,offmed_offstim,20260312_133400,2026-03-12 13:34:36.575560,1,0,reading,PROBE_TIMEOUT,72,2026-03-12 13:38:07.771729,211.198752,0.004140,,,,,,keyboard,digits_entered=,"{""note"":""digits_entered=""}",2,0.008333,120.000000,1
Sergio_G01_CNS-LLF5HT7Y0,cpeeg02,offmed_offstim,20260312_133400,2026-03-12 13:34:36.575560,1,0,reading,READING_END,24,2026-03-12 13:38:07.775115,211.202892,0.058482,,,,,,keyboard,,{},2,0.008333,120.000000,1
Sergio_G01_CNS-LLF5HT7Y0,cpeeg02,offmed_offstim,20260312_133400,2026-03-12 13:34:36.575560,1,0,reading,START_PAGE_ON,4,2026-03-12 13:38:07.878278,211.261374,0.059212,,,,,,keyboard,,"{""pd_used"":0}",2,0.008333,120.000000,1
Sergio_G01_CNS-LLF5HT7Y0,cpeeg02,offmed_offstim,20260312_133400,2026-03-12 13:34:36.575560,1,0,reading,START_PAGE_ON,4,2026-03-12 13:38:07.878278,211.261374,6.923203,,,,,,keyboard,,"{""pd_used"":0}",2,0.008333,120.000000,1
Sergio_G01_CNS-LLF5HT7Y0,cpeeg02,offmed_offstim,20260312_133400,2026-03-12 13:34:36.575560,1,0,reading,START_PAGE_ON,4,2026-03-12 13:38:07.878278,211.261374,7.299909,,,,,,keyboard,,"{""pd_used"":0}",2,0.008333,120.000000,1
Sergio_G01_CNS-LLF5HT7Y0,cpeeg02,offmed_offstim,20260312_133400,2026-03-12 13:34:36.575560,1,1,reading,TRIAL_CHANGE,22,2026-03-12 13:38:15.134598,218.561283,0.008340,,,,,,keyboard,trial transition,"{""note"":""trial transition""}",2,0.008333,120.000000,1
Sergio_G01_CNS-LLF5HT7Y0,cpeeg02,offmed_offstim,20260312_133400,2026-03-12 13:34:36.575560,1,1,reading,TRIAL_START,20,2026-03-12 13:38:15.142998,218.569623,0.058297,,,,,,keyboard,,{},2,0.008333,120.000000,1
Sergio_G01_CNS-LLF5HT7Y0,cpeeg02,offmed_offstim,20260312_133400,2026-03-12 13:34:36.575560,1,1,fix1,FIX1_ON,30,2026-03-12 13:38:15.244997,218.627920,3.520699,,,,,,keyboard,,"{""pd_used"":0}",2,0.008333,120.000000,1
Sergio_G01_CNS-LLF5HT7Y0,cpeeg02,offmed_offstim,20260312_133400,2026-03-12 13:34:36.575560,1,1,fix1,FIX1_OFF,31,2026-03-12 13:38:18.767068,222.148618,0.064037,,,,,,keyboard,,"{""pd_used"":0}",2,0.008333,120.000000,1
Sergio_G01_CNS-LLF5HT7Y0,cpeeg02,offmed_offstim,20260312_133400,2026-03-12 13:34:36.575560,1,1,digit,DIGIT1_ON,141,2026-03-12 13:38:18.830601,222.212656,0.559474,,8,,,,keyboard,digit#1 shown,"{""value"":8,""note"":""digit#1 shown"",""pd_used"":1}",2,0.008333,120.000000,1
Sergio_G01_CNS-LLF5HT7Y0,cpeeg02,offmed_offstim,20260312_133400,2026-03-12 13:34:36.575560,1,1,digit,DIGIT1_OFF,146,2026-03-12 13:38:19.389799,222.772130,0.000000,,8,,,,keyboard,digit#1 off,"{""value"":8,""note"":""digit#1 off"",""pd_used"":0}",2,0.008333,120.000000,1
Sergio_G01_CNS-LLF5HT7Y0,cpeeg02,offmed_offstim,20260312_133400,2026-03-12 13:34:36.575560,1,1,digit,POSTDIG_FIX1_ON,151,2026-03-12 13:38:19.392527,222.772130,1.625853,,,,,,keyboard,after digit#1,"{""note"":""after digit#1""}",2,0.008333,120.000000,1
Sergio_G01_CNS-LLF5HT7Y0,cpeeg02,offmed_offstim,20260312_133400,2026-03-12 13:34:36.575560,1,1,digit,POSTDIG_FIX1_OFF,156,2026-03-12 13:38:21.015649,224.397983,0.059025,,,,,,keyboard,after digit#1,"{""note"":""after digit#1"",""pd_used"":0}",2,0.008333,120.000000,1
Sergio_G01_CNS-LLF5HT7Y0,cpeeg02,offmed_offstim,20260312_133400,2026-03-12 13:34:36.575560,1,1,digit,DIGIT2_ON,142,2026-03-12 13:38:21.074265,224.457008,0.558526,,3,,,,keyboard,digit#2 shown,"{""value"":3,""note"":""digit#2 shown"",""pd_used"":1}",2,0.008333,120.000000,1
Sergio_G01_CNS-LLF5HT7Y0,cpeeg02,offmed_offstim,20260312_133400,2026-03-12 13:34:36.575560,1,1,digit,DIGIT2_OFF,147,2026-03-12 13:38:21.632531,225.015534,0.000000,,3,,,,keyboard,digit#2 off,"{""value"":3,""note"":""digit#2 off"",""pd_used"":0}",2,0.008333,120.000000,1
Sergio_G01_CNS-LLF5HT7Y0,cpeeg02,offmed_offstim,20260312_133400,2026-03-12 13:34:36.575560,1,1,digit,POSTDIG_FIX2_ON,152,2026-03-12 13:38:21.636262,225.015534,1.842268,,,,,,keyboard,after digit#2,"{""note"":""after digit#2""}",2,0.008333,120.000000,1
Sergio_G01_CNS-LLF5HT7Y0,cpeeg02,offmed_offstim,20260312_133400,2026-03-12 13:34:36.575560,1,1,digit,POSTDIG_FIX2_OFF,157,2026-03-12 13:38:23.475255,226.857802,0.057689,,,,,,keyboard,after digit#2,"{""note"":""after digit#2"",""pd_used"":0}",2,0.008333,120.000000,1
Sergio_G01_CNS-LLF5HT7Y0,cpeeg02,offmed_offstim,20260312_133400,2026-03-12 13:34:36.575560,1,1,digit,DIGIT3_ON,143,2026-03-12 13:38:23.532732,226.915491,0.557497,,0,,,,keyboard,digit#3 shown,"{""value"":0,""note"":""digit#3 shown"",""pd_used"":1}",2,0.008333,120.000000,1
Sergio_G01_CNS-LLF5HT7Y0,cpeeg02,offmed_offstim,20260312_133400,2026-03-12 13:34:36.575560,1,1,digit,DIGIT3_OFF,148,2026-03-12 13:38:24.090244,227.472988,0.000000,,0,,,,keyboard,digit#3 off,"{""value"":0,""note"":""digit#3 off"",""pd_used"":0}",2,0.008333,120.000000,1
Sergio_G01_CNS-LLF5HT7Y0,cpeeg02,offmed_offstim,20260312_133400,2026-03-12 13:34:36.575560,1,1,digit,POSTDIG_FIX3_ON,153,2026-03-12 13:38:24.093006,227.472988,1.851037,,,,,,keyboard,after digit#3,"{""note"":""after digit#3""}",2,0.008333,120.000000,1
Sergio_G01_CNS-LLF5HT7Y0,cpeeg02,offmed_offstim,20260312_133400,2026-03-12 13:34:36.575560,1,1,digit,POSTDIG_FIX3_OFF,158,2026-03-12 13:38:25.942614,229.324025,0.061642,,,,,,keyboard,after digit#3,"{""note"":""after digit#3"",""pd_used"":0}",2,0.008333,120.000000,1
Sergio_G01_CNS-LLF5HT7Y0,cpeeg02,offmed_offstim,20260312_133400,2026-03-12 13:34:36.575560,1,1,digit,DIGIT4_ON,144,2026-03-12 13:38:26.003494,229.385667,0.561388,,9,,,,keyboard,digit#4 shown,"{""value"":9,""note"":""digit#4 shown"",""pd_used"":1}",2,0.008333,120.000000,1
Sergio_G01_CNS-LLF5HT7Y0,cpeeg02,offmed_offstim,20260312_133400,2026-03-12 13:34:36.575560,1,1,digit,DIGIT4_OFF,149,2026-03-12 13:38:26.564435,229.947055,0.000000,,9,,,,keyboard,digit#4 off,"{""value"":9,""note"":""digit#4 off"",""pd_used"":0}",2,0.008333,120.000000,1
Sergio_G01_CNS-LLF5HT7Y0,cpeeg02,offmed_offstim,20260312_133400,2026-03-12 13:34:36.575560,1,1,digit,POSTDIG_FIX4_ON,154,2026-03-12 13:38:26.567070,229.947055,2.058214,,,,,,keyboard,after digit#4,"{""note"":""after digit#4""}",2,0.008333,120.000000,1
Sergio_G01_CNS-LLF5HT7Y0,cpeeg02,offmed_offstim,20260312_133400,2026-03-12 13:34:36.575560,1,1,digit,POSTDIG_FIX4_OFF,159,2026-03-12 13:38:28.623287,232.005269,0.059611,,,,,,keyboard,after digit#4,"{""note"":""after digit#4"",""pd_used"":0}",2,0.008333,120.000000,1
Sergio_G01_CNS-LLF5HT7Y0,cpeeg02,offmed_offstim,20260312_133400,2026-03-12 13:34:36.575560,1,1,digit,DIGIT5_ON,145,2026-03-12 13:38:28.681880,232.064880,0.559097,,1,,,,keyboard,digit#5 shown,"{""value"":1,""note"":""digit#5 shown"",""pd_used"":1}",2,0.008333,120.000000,1
Sergio_G01_CNS-LLF5HT7Y0,cpeeg02,offmed_offstim,20260312_133400,2026-03-12 13:34:36.575560,1,1,digit,DIGIT5_OFF,150,2026-03-12 13:38:29.241520,232.623977,0.000000,,1,,,,keyboard,digit#5 off,"{""value"":1,""note"":""digit#5 off"",""pd_used"":0}",2,0.008333,120.000000,1
Sergio_G01_CNS-LLF5HT7Y0,cpeeg02,offmed_offstim,20260312_133400,2026-03-12 13:34:36.575560,1,1,digit,POSTDIG_FIX5_ON,155,2026-03-12 13:38:29.245189,232.623977,3.392954,,,,,,keyboard,after digit#5,"{""note"":""after digit#5""}",2,0.008333,120.000000,1
Sergio_G01_CNS-LLF5HT7Y0,cpeeg02,offmed_offstim,20260312_133400,2026-03-12 13:34:36.575560,1,1,digit,POSTDIG_FIX5_OFF,160,2026-03-12 13:38:32.633538,236.016931,0.062587,,,,,,keyboard,after digit#5,"{""note"":""after digit#5"",""pd_used"":0}",2,0.008333,120.000000,1
Sergio_G01_CNS-LLF5HT7Y0,cpeeg02,offmed_offstim,20260312_133400,2026-03-12 13:34:36.575560,1,1,distractor,DISTRACTOR_ON,50,2026-03-12 13:38:32.696266,236.079518,20.074701,,8+8=16,,,,keyboard,,"{""value"":""8+8=16"",""isCorrectTruth"":true,""trueSum"":16,""pd_used"":1}",2,0.008333,120.000000,1
Sergio_G01_CNS-LLF5HT7Y0,cpeeg02,offmed_offstim,20260312_133400,2026-03-12 13:34:36.575560,1,1,distractor,DISTRACTOR_OFF,52,2026-03-12 13:38:52.771206,256.154220,0.000000,,,,,,keyboard,,"{""pd_used"":0}",2,0.008333,120.000000,1
Sergio_G01_CNS-LLF5HT7Y0,cpeeg02,offmed_offstim,20260312_133400,2026-03-12 13:34:36.575560,1,1,distractor,FIX2_ON,60,2026-03-12 13:38:52.775328,256.154220,3.341882,,,,,,keyboard,deadline reached,"{""note"":""deadline reached""}",2,0.008333,120.000000,1
Sergio_G01_CNS-LLF5HT7Y0,cpeeg02,offmed_offstim,20260312_133400,2026-03-12 13:34:36.575560,1,1,fix2,FIX2_OFF,61,2026-03-12 13:38:56.113651,259.496102,0.060695,,,,,,keyboard,,"{""pd_used"":0}",2,0.008333,120.000000,1
Sergio_G01_CNS-LLF5HT7Y0,cpeeg02,offmed_offstim,20260312_133400,2026-03-12 13:34:36.575560,1,1,probe,DIGIT_RECALL_LINE_1,161,2026-03-12 13:38:56.172810,259.556797,12.133419,,1,,,,keyboard,first recall question,"{""value"":1,""note"":""first recall question"",""pd_used"":1}",2,0.008333,120.000000,1
Sergio_G01_CNS-LLF5HT7Y0,cpeeg02,offmed_offstim,20260312_133400,2026-03-12 13:34:36.575560,1,1,probe,PROBE_DIGIT_OK_1,71,2026-03-12 13:39:08.780163,271.690216,0.572772,12.146879,slot#1,NaN,,,keyboard,probe_digit#1,"{""value"":""slot#1"",""entered"":null,""rt"":12.146879000007175,""note"":""probe_digit#1""}",2,0.008333,120.000000,1
Sergio_G01_CNS-LLF5HT7Y0,cpeeg02,offmed_offstim,20260312_133400,2026-03-12 13:34:36.575560,1,1,probe,DIGIT1_OFF,146,2026-03-12 13:39:08.880416,272.262988,0.000000,,1,,,,keyboard,digit#1 off,"{""value"":1,""note"":""digit#1 off"",""pd_used"":0}",2,0.008333,120.000000,1
Sergio_G01_CNS-LLF5HT7Y0,cpeeg02,offmed_offstim,20260312_133400,2026-03-12 13:34:36.575560,1,1,probe,POSTDIG_FIX1_ON,151,2026-03-12 13:39:08.885696,272.262988,1.775036,,,,,,keyboard,after digit#1,"{""note"":""after digit#1""}",2,0.008333,120.000000,1
Sergio_G01_CNS-LLF5HT7Y0,cpeeg02,offmed_offstim,20260312_133400,2026-03-12 13:34:36.575560,1,1,probe,POSTDIG_FIX1_OFF,156,2026-03-12 13:39:10.655711,274.038023,0.068947,,,,,,keyboard,after digit#1,"{""note"":""after digit#1"",""pd_used"":0}",2,0.008333,120.000000,1
Sergio_G01_CNS-LLF5HT7Y0,cpeeg02,offmed_offstim,20260312_133400,2026-03-12 13:34:36.575560,1,1,probe,DIGIT_RECALL_LINE_2,162,2026-03-12 13:39:10.723634,274.106970,4.320311,,2,,,,keyboard,next recall question,"{""value"":2,""note"":""next recall question"",""pd_used"":1}",2,0.008333,120.000000,1
Sergio_G01_CNS-LLF5HT7Y0,cpeeg02,offmed_offstim,20260312_133400,2026-03-12 13:34:36.575560,1,1,probe,PROBE_DIGIT_OK_2,71,2026-03-12 13:39:15.358087,278.427281,0.411922,18.883944,slot#2,NaN,,,keyboard,probe_digit#2,"{""value"":""slot#2"",""entered"":null,""rt"":18.883943900000304,""note"":""probe_digit#2""}",2,0.008333,120.000000,1
Sergio_G01_CNS-LLF5HT7Y0,cpeeg02,offmed_offstim,20260312_133400,2026-03-12 13:34:36.575560,1,1,probe,DIGIT2_OFF,147,2026-03-12 13:39:15.458193,278.839203,0.000000,,1,,,,keyboard,digit#2 off,"{""value"":1,""note"":""digit#2 off"",""pd_used"":0}",2,0.008333,120.000000,1
Sergio_G01_CNS-LLF5HT7Y0,cpeeg02,offmed_offstim,20260312_133400,2026-03-12 13:34:36.575560,1,1,probe,POSTDIG_FIX2_ON,152,2026-03-12 13:39:15.460990,278.839203,1.731984,,,,,,keyboard,after digit#2,"{""note"":""after digit#2""}",2,0.008333,120.000000,1
Sergio_G01_CNS-LLF5HT7Y0,cpeeg02,offmed_offstim,20260312_133400,2026-03-12 13:34:36.575560,1,1,probe,POSTDIG_FIX2_OFF,157,2026-03-12 13:39:17.188020,280.571187,0.061748,,,,,,keyboard,after digit#2,"{""note"":""after digit#2"",""pd_used"":0}",2,0.008333,120.000000,1
Sergio_G01_CNS-LLF5HT7Y0,cpeeg02,offmed_offstim,20260312_133400,2026-03-12 13:34:36.575560,1,1,probe,DIGIT_RECALL_LINE_3,163,2026-03-12 13:39:17.249678,280.632935,7.486572,,3,,,,keyboard,next recall question,"{""value"":3,""note"":""next recall question"",""pd_used"":1}",2,0.008333,120.000000,1
Sergio_G01_CNS-LLF5HT7Y0,cpeeg02,offmed_offstim,20260312_133400,2026-03-12 13:34:36.575560,1,1,probe,PROBE_DIGIT_OK_3,71,2026-03-12 13:39:25.056262,288.119507,0.416837,28.576170,slot#3,NaN,,,keyboard,probe_digit#3,"{""value"":""slot#3"",""entered"":null,""rt"":28.576169900014065,""note"":""probe_digit#3""}",2,0.008333,120.000000,1
Sergio_G01_CNS-LLF5HT7Y0,cpeeg02,offmed_offstim,20260312_133400,2026-03-12 13:34:36.575560,1,1,probe,DIGIT3_OFF,148,2026-03-12 13:39:25.155229,288.536344,0.000000,,1,,,,keyboard,digit#3 off,"{""value"":1,""note"":""digit#3 off"",""pd_used"":0}",2,0.008333,120.000000,1
Sergio_G01_CNS-LLF5HT7Y0,cpeeg02,offmed_offstim,20260312_133400,2026-03-12 13:34:36.575560,1,1,probe,POSTDIG_FIX3_ON,153,2026-03-12 13:39:25.158005,288.536344,1.871351,,,,,,keyboard,after digit#3,"{""note"":""after digit#3""}",2,0.008333,120.000000,1
Sergio_G01_CNS-LLF5HT7Y0,cpeeg02,offmed_offstim,20260312_133400,2026-03-12 13:34:36.575560,1,1,probe,POSTDIG_FIX3_OFF,158,2026-03-12 13:39:27.025586,290.407695,0.063765,,,,,,keyboard,after digit#3,"{""note"":""after digit#3"",""pd_used"":0}",2,0.008333,120.000000,1
Sergio_G01_CNS-LLF5HT7Y0,cpeeg02,offmed_offstim,20260312_133400,2026-03-12 13:34:36.575560,1,1,probe,DIGIT_RECALL_LINE_4,164,2026-03-12 13:39:27.087423,290.471460,4.702197,,4,,,,keyboard,next recall question,"{""value"":4,""note"":""next recall question"",""pd_used"":1}",2,0.008333,120.000000,1
Sergio_G01_CNS-LLF5HT7Y0,cpeeg02,offmed_offstim,20260312_133400,2026-03-12 13:34:36.575560,1,1,probe,PROBE_DIGIT_OK_4,71,2026-03-12 13:39:32.150681,295.173657,0.457311,35.630320,slot#4,NaN,,,keyboard,probe_digit#4,"{""value"":""slot#4"",""entered"":null,""rt"":35.63031979999505,""note"":""probe_digit#4""}",2,0.008333,120.000000,1
Sergio_G01_CNS-LLF5HT7Y0,cpeeg02,offmed_offstim,20260312_133400,2026-03-12 13:34:36.575560,1,1,probe,DIGIT4_OFF,149,2026-03-12 13:39:32.250065,295.630968,0.000000,,1,,,,keyboard,digit#4 off,"{""value"":1,""note"":""digit#4 off"",""pd_used"":0}",2,0.008333,120.000000,1
Sergio_G01_CNS-LLF5HT7Y0,cpeeg02,offmed_offstim,20260312_133400,2026-03-12 13:34:36.575560,1,1,probe,POSTDIG_FIX4_ON,154,2026-03-12 13:39:32.252509,295.630968,1.868176,,,,,,keyboard,after digit#4,"{""note"":""after digit#4""}",2,0.008333,120.000000,1
Sergio_G01_CNS-LLF5HT7Y0,cpeeg02,offmed_offstim,20260312_133400,2026-03-12 13:34:36.575560,1,1,probe,POSTDIG_FIX4_OFF,159,2026-03-12 13:39:34.116273,297.499144,0.063340,,,,,,keyboard,after digit#4,"{""note"":""after digit#4"",""pd_used"":0}",2,0.008333,120.000000,1
Sergio_G01_CNS-LLF5HT7Y0,cpeeg02,offmed_offstim,20260312_133400,2026-03-12 13:34:36.575560,1,1,probe,DIGIT_RECALL_LINE_5,165,2026-03-12 13:39:34.177678,297.562484,5.482090,,5,,,,keyboard,next recall question,"{""value"":5,""note"":""next recall question"",""pd_used"":1}",2,0.008333,120.000000,1
Sergio_G01_CNS-LLF5HT7Y0,cpeeg02,offmed_offstim,20260312_133400,2026-03-12 13:34:36.575560,1,1,probe,PROBE_DIGIT_OK_5,71,2026-03-12 13:39:40.029300,303.044574,0.469349,43.501237,slot#5,NaN,,,keyboard,probe_digit#5,"{""value"":""slot#5"",""entered"":null,""rt"":43.501237299991772,""note"":""probe_digit#5""}",2,0.008333,120.000000,1
Sergio_G01_CNS-LLF5HT7Y0,cpeeg02,offmed_offstim,20260312_133400,2026-03-12 13:34:36.575560,1,1,probe,DIGIT5_OFF,150,2026-03-12 13:39:40.131620,303.513924,0.000000,,1,,,,keyboard,digit#5 off,"{""value"":1,""note"":""digit#5 off"",""pd_used"":0}",2,0.008333,120.000000,1
Sergio_G01_CNS-LLF5HT7Y0,cpeeg02,offmed_offstim,20260312_133400,2026-03-12 13:34:36.575560,1,1,probe,POSTDIG_FIX5_ON,155,2026-03-12 13:39:40.135063,303.513924,3.212089,,,,,,keyboard,after digit#5,"{""note"":""after digit#5""}",2,0.008333,120.000000,1
Sergio_G01_CNS-LLF5HT7Y0,cpeeg02,offmed_offstim,20260312_133400,2026-03-12 13:34:36.575560,1,1,probe,POSTDIG_FIX5_OFF,160,2026-03-12 13:39:43.343468,306.726013,0.055191,,,,,,keyboard,after digit#5,"{""note"":""after digit#5"",""pd_used"":0}",2,0.008333,120.000000,1
Sergio_G01_CNS-LLF5HT7Y0,cpeeg02,offmed_offstim,20260312_133400,2026-03-12 13:34:36.575560,1,1,probe,PROBE_DONE,73,2026-03-12 13:39:43.354320,306.781204,0.002549,,,,,,keyboard,probe complete,"{""value"":"""",""note"":""probe complete""}",2,0.008333,120.000000,1
Sergio_G01_CNS-LLF5HT7Y0,cpeeg02,offmed_offstim,20260312_133400,2026-03-12 13:34:36.575560,1,1,probe,TRIAL_END,21,2026-03-12 13:39:43.356500,306.783753,0.045109,,,,,,keyboard,,{},2,0.008333,120.000000,1
Sergio_G01_CNS-LLF5HT7Y0,cpeeg02,offmed_offstim,20260312_133400,2026-03-12 13:34:36.575560,1,2,probe,TRIAL_CHANGE,22,2026-03-12 13:39:43.402401,306.828862,0.002734,,,,,,keyboard,trial transition,"{""note"":""trial transition""}",2,0.008333,120.000000,1
Sergio_G01_CNS-LLF5HT7Y0,cpeeg02,offmed_offstim,20260312_133400,2026-03-12 13:34:36.575560,1,2,probe,TRIAL_START,20,2026-03-12 13:39:43.404560,306.831597,0.058547,,,,,,keyboard,,{},2,0.008333,120.000000,1
Sergio_G01_CNS-LLF5HT7Y0,cpeeg02,offmed_offstim,20260312_133400,2026-03-12 13:34:36.575560,1,2,fix1,FIX1_ON,30,2026-03-12 13:39:43.508318,306.890143,3.187807,,,,,,keyboard,,"{""pd_used"":0}",2,0.008333,120.000000,1
Sergio_G01_CNS-LLF5HT7Y0,cpeeg02,offmed_offstim,20260312_133400,2026-03-12 13:34:36.575560,1,2,fix1,FIX1_OFF,31,2026-03-12 13:39:46.695307,310.077950,0.056788,,,,,,keyboard,,"{""pd_used"":0}",2,0.008333,120.000000,1
Sergio_G01_CNS-LLF5HT7Y0,cpeeg02,offmed_offstim,20260312_133400,2026-03-12 13:34:36.575560,1,2,digit,DIGIT1_ON,141,2026-03-12 13:39:46.751696,310.134738,0.555410,,1,,,,keyboard,digit#1 shown,"{""value"":1,""note"":""digit#1 shown"",""pd_used"":1}",2,0.008333,120.000000,1
Sergio_G01_CNS-LLF5HT7Y0,cpeeg02,offmed_offstim,20260312_133400,2026-03-12 13:34:36.575560,1,2,digit,DIGIT1_OFF,146,2026-03-12 13:39:47.307625,310.690148,0.000000,,1,,,,keyboard,digit#1 off,"{""value"":1,""note"":""digit#1 off"",""pd_used"":0}",2,0.008333,120.000000,1
Sergio_G01_CNS-LLF5HT7Y0,cpeeg02,offmed_offstim,20260312_133400,2026-03-12 13:34:36.575560,1,2,digit,POSTDIG_FIX1_ON,151,2026-03-12 13:39:47.309873,310.690148,1.655659,,,,,,keyboard,after digit#1,"{""note"":""after digit#1""}",2,0.008333,120.000000,1
Sergio_G01_CNS-LLF5HT7Y0,cpeeg02,offmed_offstim,20260312_133400,2026-03-12 13:34:36.575560,1,2,digit,POSTDIG_FIX1_OFF,156,2026-03-12 13:39:48.963755,312.345807,0.057649,,,,,,keyboard,after digit#1,"{""note"":""after digit#1"",""pd_used"":0}",2,0.008333,120.000000,1
Sergio_G01_CNS-LLF5HT7Y0,cpeeg02,offmed_offstim,20260312_133400,2026-03-12 13:34:36.575560,1,2,digit,DIGIT2_ON,142,2026-03-12 13:39:49.020178,312.403456,0.554834,,5,,,,keyboard,digit#2 shown,"{""value"":5,""note"":""digit#2 shown"",""pd_used"":1}",2,0.008333,120.000000,1
Sergio_G01_CNS-LLF5HT7Y0,cpeeg02,offmed_offstim,20260312_133400,2026-03-12 13:34:36.575560,1,2,digit,DIGIT2_OFF,147,2026-03-12 13:39:49.575822,312.958290,0.000000,,5,,,,keyboard,digit#2 off,"{""value"":5,""note"":""digit#2 off"",""pd_used"":0}",2,0.008333,120.000000,1
Sergio_G01_CNS-LLF5HT7Y0,cpeeg02,offmed_offstim,20260312_133400,2026-03-12 13:34:36.575560,1,2,digit,POSTDIG_FIX2_ON,152,2026-03-12 13:39:49.578005,312.958290,1.957278,,,,,,keyboard,after digit#2,"{""note"":""after digit#2""}",2,0.008333,120.000000,1
Sergio_G01_CNS-LLF5HT7Y0,cpeeg02,offmed_offstim,20260312_133400,2026-03-12 13:34:36.575560,1,2,digit,POSTDIG_FIX2_OFF,157,2026-03-12 13:39:51.533266,314.915568,0.056869,,,,,,keyboard,after digit#2,"{""note"":""after digit#2"",""pd_used"":0}",2,0.008333,120.000000,1
Sergio_G01_CNS-LLF5HT7Y0,cpeeg02,offmed_offstim,20260312_133400,2026-03-12 13:34:36.575560,1,2,digit,DIGIT3_ON,143,2026-03-12 13:39:51.589711,314.972438,0.556336,,1,,,,keyboard,digit#3 shown,"{""value"":1,""note"":""digit#3 shown"",""pd_used"":1}",2,0.008333,120.000000,1
Sergio_G01_CNS-LLF5HT7Y0,cpeeg02,offmed_offstim,20260312_133400,2026-03-12 13:34:36.575560,1,2,digit,DIGIT3_OFF,148,2026-03-12 13:39:52.146550,315.528774,0.000000,,1,,,,keyboard,digit#3 off,"{""value"":1,""note"":""digit#3 off"",""pd_used"":0}",2,0.008333,120.000000,1
Sergio_G01_CNS-LLF5HT7Y0,cpeeg02,offmed_offstim,20260312_133400,2026-03-12 13:34:36.575560,1,2,digit,POSTDIG_FIX3_ON,153,2026-03-12 13:39:52.148825,315.528774,1.724931,,,,,,keyboard,after digit#3,"{""note"":""after digit#3""}",2,0.008333,120.000000,1
Sergio_G01_CNS-LLF5HT7Y0,cpeeg02,offmed_offstim,20260312_133400,2026-03-12 13:34:36.575560,1,2,digit,POSTDIG_FIX3_OFF,158,2026-03-12 13:39:53.871934,317.253705,0.057712,,,,,,keyboard,after digit#3,"{""note"":""after digit#3"",""pd_used"":0}",2,0.008333,120.000000,1
Sergio_G01_CNS-LLF5HT7Y0,cpeeg02,offmed_offstim,20260312_133400,2026-03-12 13:34:36.575560,1,2,digit,DIGIT4_ON,144,2026-03-12 13:39:53.928476,317.311418,0.556695,,7,,,,keyboard,digit#4 shown,"{""value"":7,""note"":""digit#4 shown"",""pd_used"":1}",2,0.008333,120.000000,1
Sergio_G01_CNS-LLF5HT7Y0,cpeeg02,offmed_offstim,20260312_133400,2026-03-12 13:34:36.575560,1,2,digit,DIGIT4_OFF,149,2026-03-12 13:39:54.485339,317.868113,0.000000,,7,,,,keyboard,digit#4 off,"{""value"":7,""note"":""digit#4 off"",""pd_used"":0}",2,0.008333,120.000000,1
Sergio_G01_CNS-LLF5HT7Y0,cpeeg02,offmed_offstim,20260312_133400,2026-03-12 13:34:36.575560,1,2,digit,POSTDIG_FIX4_ON,154,2026-03-12 13:39:54.487487,317.868113,1.946534,,,,,,keyboard,after digit#4,"{""note"":""after digit#4""}",2,0.008333,120.000000,1
Sergio_G01_CNS-LLF5HT7Y0,cpeeg02,offmed_offstim,20260312_133400,2026-03-12 13:34:36.575560,1,2,digit,POSTDIG_FIX4_OFF,159,2026-03-12 13:39:56.431490,319.814647,0.055936,,,,,,keyboard,after digit#4,"{""note"":""after digit#4"",""pd_used"":0}",2,0.008333,120.000000,1
Sergio_G01_CNS-LLF5HT7Y0,cpeeg02,offmed_offstim,20260312_133400,2026-03-12 13:34:36.575560,1,2,digit,DIGIT5_ON,145,2026-03-12 13:39:56.486872,319.870584,0.555390,,7,,,,keyboard,digit#5 shown,"{""value"":7,""note"":""digit#5 shown"",""pd_used"":1}",2,0.008333,120.000000,1
Sergio_G01_CNS-LLF5HT7Y0,cpeeg02,offmed_offstim,20260312_133400,2026-03-12 13:34:36.575560,1,2,digit,DIGIT5_OFF,150,2026-03-12 13:39:57.042377,320.425973,0.000000,,7,,,,keyboard,digit#5 off,"{""value"":7,""note"":""digit#5 off"",""pd_used"":0}",2,0.008333,120.000000,1
Sergio_G01_CNS-LLF5HT7Y0,cpeeg02,offmed_offstim,20260312_133400,2026-03-12 13:34:36.575560,1,2,digit,POSTDIG_FIX5_ON,155,2026-03-12 13:39:57.044278,320.425973,3.368808,,,,,,keyboard,after digit#5,"{""note"":""after digit#5""}",2,0.008333,120.000000,1
Sergio_G01_CNS-LLF5HT7Y0,cpeeg02,offmed_offstim,20260312_133400,2026-03-12 13:34:36.575560,1,2,digit,POSTDIG_FIX5_OFF,160,2026-03-12 13:40:00.412614,323.794782,0.062320,,,,,,keyboard,after digit#5,"{""note"":""after digit#5"",""pd_used"":0}",2,0.008333,120.000000,1
Sergio_G01_CNS-LLF5HT7Y0,cpeeg02,offmed_offstim,20260312_133400,2026-03-12 13:34:36.575560,1,2,distractor,DISTRACTOR_ON,50,2026-03-12 13:40:00.473623,323.857102,20.051950,,0+1=1,,,,keyboard,,"{""value"":""0+1=1"",""isCorrectTruth"":true,""trueSum"":1,""pd_used"":1}",2,0.008333,120.000000,1
Sergio_G01_CNS-LLF5HT7Y0,cpeeg02,offmed_offstim,20260312_133400,2026-03-12 13:34:36.575560,1,2,distractor,DISTRACTOR_OFF,52,2026-03-12 13:40:20.526508,343.909051,0.000000,,,,,,keyboard,,"{""pd_used"":0}",2,0.008333,120.000000,1
Sergio_G01_CNS-LLF5HT7Y0,cpeeg02,offmed_offstim,20260312_133400,2026-03-12 13:34:36.575560,1,2,distractor,FIX2_ON,60,2026-03-12 13:40:20.529001,343.909051,3.485320,,,,,,keyboard,deadline reached,"{""note"":""deadline reached""}",2,0.008333,120.000000,1
Sergio_G01_CNS-LLF5HT7Y0,cpeeg02,offmed_offstim,20260312_133400,2026-03-12 13:34:36.575560,1,2,fix2,FIX2_OFF,61,2026-03-12 13:40:24.011890,347.394371,0.057295,,,,,,keyboard,,"{""pd_used"":0}",2,0.008333,120.000000,1
Sergio_G01_CNS-LLF5HT7Y0,cpeeg02,offmed_offstim,20260312_133400,2026-03-12 13:34:36.575560,1,2,probe,DIGIT_RECALL_LINE_1,161,2026-03-12 13:40:24.068623,347.451666,12.141452,,1,,,,keyboard,first recall question,"{""value"":1,""note"":""first recall question"",""pd_used"":1}",2,0.008333,120.000000,1
Sergio_G01_CNS-LLF5HT7Y0,cpeeg02,offmed_offstim,20260312_133400,2026-03-12 13:34:36.575560,1,2,probe,PROBE_DIGIT_OK_1,71,2026-03-12 13:40:36.533248,359.593119,0.420187,12.151542,slot#1,NaN,,,keyboard,probe_digit#1,"{""value"":""slot#1"",""entered"":null,""rt"":12.151541600003839,""note"":""probe_digit#1""}",2,0.008333,120.000000,1
Sergio_G01_CNS-LLF5HT7Y0,cpeeg02,offmed_offstim,20260312_133400,2026-03-12 13:34:36.575560,1,2,probe,DIGIT1_OFF,146,2026-03-12 13:40:36.631813,360.013306,0.000000,,7,,,,keyboard,digit#1 off,"{""value"":7,""note"":""digit#1 off"",""pd_used"":0}",2,0.008333,120.000000,1
Sergio_G01_CNS-LLF5HT7Y0,cpeeg02,offmed_offstim,20260312_133400,2026-03-12 13:34:36.575560,1,2,probe,POSTDIG_FIX1_ON,151,2026-03-12 13:40:36.634050,360.013306,1.749733,,,,,,keyboard,after digit#1,"{""note"":""after digit#1""}",2,0.008333,120.000000,1
Sergio_G01_CNS-LLF5HT7Y0,cpeeg02,offmed_offstim,20260312_133400,2026-03-12 13:34:36.575560,1,2,probe,POSTDIG_FIX1_OFF,156,2026-03-12 13:40:38.380778,361.763038,0.065061,,,,,,keyboard,after digit#1,"{""note"":""after digit#1"",""pd_used"":0}",2,0.008333,120.000000,1
Sergio_G01_CNS-LLF5HT7Y0,cpeeg02,offmed_offstim,20260312_133400,2026-03-12 13:34:36.575560,1,2,probe,DIGIT_RECALL_LINE_2,162,2026-03-12 13:40:38.445034,361.828099,3.334936,,2,,,,keyboard,next recall question,"{""value"":2,""note"":""next recall question"",""pd_used"":1}",2,0.008333,120.000000,1
Sergio_G01_CNS-LLF5HT7Y0,cpeeg02,offmed_offstim,20260312_133400,2026-03-12 13:34:36.575560,1,2,probe,PROBE_DIGIT_OK_2,71,2026-03-12 13:40:42.237607,365.163035,0.556543,17.721458,slot#2,NaN,,,keyboard,probe_digit#2,"{""value"":""slot#2"",""entered"":null,""rt"":17.721457700012252,""note"":""probe_digit#2""}",2,0.008333,120.000000,1
Sergio_G01_CNS-LLF5HT7Y0,cpeeg02,offmed_offstim,20260312_133400,2026-03-12 13:34:36.575560,1,2,probe,DIGIT2_OFF,147,2026-03-12 13:40:42.338398,365.719577,0.000000,,7,,,,keyboard,digit#2 off,"{""value"":7,""note"":""digit#2 off"",""pd_used"":0}",2,0.008333,120.000000,1
Sergio_G01_CNS-LLF5HT7Y0,cpeeg02,offmed_offstim,20260312_133400,2026-03-12 13:34:36.575560,1,2,probe,POSTDIG_FIX2_ON,152,2026-03-12 13:40:42.340876,365.719577,1.580424,,,,,,keyboard,after digit#2,"{""note"":""after digit#2""}",2,0.008333,120.000000,1
Sergio_G01_CNS-LLF5HT7Y0,cpeeg02,offmed_offstim,20260312_133400,2026-03-12 13:34:36.575560,1,2,probe,POSTDIG_FIX2_OFF,157,2026-03-12 13:40:43.917553,367.300001,0.063283,,,,,,keyboard,after digit#2,"{""note"":""after digit#2"",""pd_used"":0}",2,0.008333,120.000000,1
Sergio_G01_CNS-LLF5HT7Y0,cpeeg02,offmed_offstim,20260312_133400,2026-03-12 13:34:36.575560,1,2,probe,DIGIT_RECALL_LINE_3,163,2026-03-12 13:40:43.979717,367.363283,4.567155,,3,,,,keyboard,next recall question,"{""value"":3,""note"":""next recall question"",""pd_used"":1}",2,0.008333,120.000000,1
Sergio_G01_CNS-LLF5HT7Y0,cpeeg02,offmed_offstim,20260312_133400,2026-03-12 13:34:36.575560,1,2,probe,PROBE_DIGIT_OK_3,71,2026-03-12 13:40:48.887851,371.930438,0.437470,24.488861,slot#3,NaN,,,keyboard,probe_digit#3,"{""value"":""slot#3"",""entered"":null,""rt"":24.488861099933274,""note"":""probe_digit#3""}",2,0.008333,120.000000,1
Sergio_G01_CNS-LLF5HT7Y0,cpeeg02,offmed_offstim,20260312_133400,2026-03-12 13:34:36.575560,1,2,probe,DIGIT3_OFF,148,2026-03-12 13:40:48.987538,372.367908,0.000000,,7,,,,keyboard,digit#3 off,"{""value"":7,""note"":""digit#3 off"",""pd_used"":0}",2,0.008333,120.000000,1
Sergio_G01_CNS-LLF5HT7Y0,cpeeg02,offmed_offstim,20260312_133400,2026-03-12 13:34:36.575560,1,2,probe,POSTDIG_FIX3_ON,153,2026-03-12 13:40:48.990031,372.367908,1.957739,,,,,,keyboard,after digit#3,"{""note"":""after digit#3""}",2,0.008333,120.000000,1
Sergio_G01_CNS-LLF5HT7Y0,cpeeg02,offmed_offstim,20260312_133400,2026-03-12 13:34:36.575560,1,2,probe,POSTDIG_FIX3_OFF,158,2026-03-12 13:40:50.943211,374.325647,0.062898,,,,,,keyboard,after digit#3,"{""note"":""after digit#3"",""pd_used"":0}",2,0.008333,120.000000,1
Sergio_G01_CNS-LLF5HT7Y0,cpeeg02,offmed_offstim,20260312_133400,2026-03-12 13:34:36.575560,1,2,probe,DIGIT_RECALL_LINE_4,164,2026-03-12 13:40:51.005574,374.388545,3.181980,,4,,,,keyboard,next recall question,"{""value"":4,""note"":""next recall question"",""pd_used"":1}",2,0.008333,120.000000,1
Sergio_G01_CNS-LLF5HT7Y0,cpeeg02,offmed_offstim,20260312_133400,2026-03-12 13:34:36.575560,1,2,probe,PROBE_DIGIT_OK_4,71,2026-03-12 13:40:54.579755,377.570525,0.490708,30.128948,slot#4,NaN,,,keyboard,probe_digit#4,"{""value"":""slot#4"",""entered"":null,""rt"":30.128948400029913,""note"":""probe_digit#4""}",2,0.008333,120.000000,1
Sergio_G01_CNS-LLF5HT7Y0,cpeeg02,offmed_offstim,20260312_133400,2026-03-12 13:34:36.575560,1,2,probe,DIGIT4_OFF,149,2026-03-12 13:40:54.679696,378.061234,0.000000,,7,,,,keyboard,digit#4 off,"{""value"":7,""note"":""digit#4 off"",""pd_used"":0}",2,0.008333,120.000000,1
Sergio_G01_CNS-LLF5HT7Y0,cpeeg02,offmed_offstim,20260312_133400,2026-03-12 13:34:36.575560,1,2,probe,POSTDIG_FIX4_ON,154,2026-03-12 13:40:54.681567,378.061234,1.793147,,,,,,keyboard,after digit#4,"{""note"":""after digit#4""}",2,0.008333,120.000000,1
Sergio_G01_CNS-LLF5HT7Y0,cpeeg02,offmed_offstim,20260312_133400,2026-03-12 13:34:36.575560,1,2,probe,POSTDIG_FIX4_OFF,159,2026-03-12 13:40:56.471627,379.854380,0.063157,,,,,,keyboard,after digit#4,"{""note"":""after digit#4"",""pd_used"":0}",2,0.008333,120.000000,1
Sergio_G01_CNS-LLF5HT7Y0,cpeeg02,offmed_offstim,20260312_133400,2026-03-12 13:34:36.575560,1,2,probe,DIGIT_RECALL_LINE_5,165,2026-03-12 13:40:56.534406,379.917537,3.981830,,5,,,,keyboard,next recall question,"{""value"":5,""note"":""next recall question"",""pd_used"":1}",2,0.008333,120.000000,1
Sergio_G01_CNS-LLF5HT7Y0,cpeeg02,offmed_offstim,20260312_133400,2026-03-12 13:34:36.575560,1,2,probe,PROBE_DIGIT_OK_5,71,2026-03-12 13:41:00.879640,383.899367,0.460661,36.457790,slot#5,NaN,,,keyboard,probe_digit#5,"{""value"":""slot#5"",""entered"":null,""rt"":36.457789500011131,""note"":""probe_digit#5""}",2,0.008333,120.000000,1
Sergio_G01_CNS-LLF5HT7Y0,cpeeg02,offmed_offstim,20260312_133400,2026-03-12 13:34:36.575560,1,2,probe,DIGIT5_OFF,150,2026-03-12 13:41:00.978891,384.360027,0.000000,,7,,,,keyboard,digit#5 off,"{""value"":7,""note"":""digit#5 off"",""pd_used"":0}",2,0.008333,120.000000,1
Sergio_G01_CNS-LLF5HT7Y0,cpeeg02,offmed_offstim,20260312_133400,2026-03-12 13:34:36.575560,1,2,probe,POSTDIG_FIX5_ON,155,2026-03-12 13:41:00.981032,384.360027,3.236164,,,,,,keyboard,after digit#5,"{""note"":""after digit#5""}",2,0.008333,120.000000,1
Sergio_G01_CNS-LLF5HT7Y0,cpeeg02,offmed_offstim,20260312_133400,2026-03-12 13:34:36.575560,1,2,probe,POSTDIG_FIX5_OFF,160,2026-03-12 13:41:04.214119,387.596191,0.054526,,,,,,keyboard,after digit#5,"{""note"":""after digit#5"",""pd_used"":0}",2,0.008333,120.000000,1
Sergio_G01_CNS-LLF5HT7Y0,cpeeg02,offmed_offstim,20260312_133400,2026-03-12 13:34:36.575560,1,2,probe,PROBE_DONE,73,2026-03-12 13:41:04.223535,387.650718,0.001745,,,,,,keyboard,probe complete,"{""value"":"""",""note"":""probe complete""}",2,0.008333,120.000000,1
Sergio_G01_CNS-LLF5HT7Y0,cpeeg02,offmed_offstim,20260312_133400,2026-03-12 13:34:36.575560,1,2,probe,TRIAL_END,21,2026-03-12 13:41:04.225184,387.652463,0.044935,,,,,,keyboard,,{},2,0.008333,120.000000,1
Sergio_G01_CNS-LLF5HT7Y0,cpeeg02,offmed_offstim,20260312_133400,2026-03-12 13:34:36.575560,1,3,probe,TRIAL_CHANGE,22,2026-03-12 13:41:04.270337,387.697398,0.001906,,,,,,keyboard,trial transition,"{""note"":""trial transition""}",2,0.008333,120.000000,1
Sergio_G01_CNS-LLF5HT7Y0,cpeeg02,offmed_offstim,20260312_133400,2026-03-12 13:34:36.575560,1,3,probe,TRIAL_START,20,2026-03-12 13:41:04.271979,387.699305,0.060761,,,,,,keyboard,,{},2,0.008333,120.000000,1
Sergio_G01_CNS-LLF5HT7Y0,cpeeg02,offmed_offstim,20260312_133400,2026-03-12 13:34:36.575560,1,3,fix1,FIX1_ON,30,2026-03-12 13:41:04.377365,387.760065,3.543130,,,,,,keyboard,,"{""pd_used"":0}",2,0.008333,120.000000,1
Sergio_G01_CNS-LLF5HT7Y0,cpeeg02,offmed_offstim,20260312_133400,2026-03-12 13:34:36.575560,1,3,fix1,FIX1_OFF,31,2026-03-12 13:41:07.921043,391.303195,0.057283,,,,,,keyboard,,"{""pd_used"":0}",2,0.008333,120.000000,1
Sergio_G01_CNS-LLF5HT7Y0,cpeeg02,offmed_offstim,20260312_133400,2026-03-12 13:34:36.575560,1,3,digit,DIGIT1_ON,141,2026-03-12 13:41:07.978586,391.360477,0.557635,,7,,,,keyboard,digit#1 shown,"{""value"":7,""note"":""digit#1 shown"",""pd_used"":1}",2,0.008333,120.000000,1
Sergio_G01_CNS-LLF5HT7Y0,cpeeg02,offmed_offstim,20260312_133400,2026-03-12 13:34:36.575560,1,3,digit,DIGIT1_OFF,146,2026-03-12 13:41:08.535859,391.918112,0.000000,,7,,,,keyboard,digit#1 off,"{""value"":7,""note"":""digit#1 off"",""pd_used"":0}",2,0.008333,120.000000,1
Sergio_G01_CNS-LLF5HT7Y0,cpeeg02,offmed_offstim,20260312_133400,2026-03-12 13:34:36.575560,1,3,digit,POSTDIG_FIX1_ON,151,2026-03-12 13:41:08.537969,391.918112,1.570616,,,,,,keyboard,after digit#1,"{""note"":""after digit#1""}",2,0.008333,120.000000,1
Sergio_G01_CNS-LLF5HT7Y0,cpeeg02,offmed_offstim,20260312_133400,2026-03-12 13:34:36.575560,1,3,digit,POSTDIG_FIX1_OFF,156,2026-03-12 13:41:10.106652,393.488728,0.057086,,,,,,keyboard,after digit#1,"{""note"":""after digit#1"",""pd_used"":0}",2,0.008333,120.000000,1
Sergio_G01_CNS-LLF5HT7Y0,cpeeg02,offmed_offstim,20260312_133400,2026-03-12 13:34:36.575560,1,3,digit,DIGIT2_ON,142,2026-03-12 13:41:10.163355,393.545815,0.556830,,8,,,,keyboard,digit#2 shown,"{""value"":8,""note"":""digit#2 shown"",""pd_used"":1}",2,0.008333,120.000000,1
Sergio_G01_CNS-LLF5HT7Y0,cpeeg02,offmed_offstim,20260312_133400,2026-03-12 13:34:36.575560,1,3,digit,DIGIT2_OFF,147,2026-03-12 13:41:10.721185,394.102645,0.000000,,8,,,,keyboard,digit#2 off,"{""value"":8,""note"":""digit#2 off"",""pd_used"":0}",2,0.008333,120.000000,1
Sergio_G01_CNS-LLF5HT7Y0,cpeeg02,offmed_offstim,20260312_133400,2026-03-12 13:34:36.575560,1,3,digit,POSTDIG_FIX2_ON,152,2026-03-12 13:41:10.723561,394.102645,1.860055,,,,,,keyboard,after digit#2,"{""note"":""after digit#2""}",2,0.008333,120.000000,1
Sergio_G01_CNS-LLF5HT7Y0,cpeeg02,offmed_offstim,20260312_133400,2026-03-12 13:34:36.575560,1,3,digit,POSTDIG_FIX2_OFF,157,2026-03-12 13:41:12.580464,395.962700,0.057443,,,,,,keyboard,after digit#2,"{""note"":""after digit#2"",""pd_used"":0}",2,0.008333,120.000000,1
Sergio_G01_CNS-LLF5HT7Y0,cpeeg02,offmed_offstim,20260312_133400,2026-03-12 13:34:36.575560,1,3,digit,DIGIT3_ON,143,2026-03-12 13:41:12.636842,396.020143,0.555856,,1,,,,keyboard,digit#3 shown,"{""value"":1,""note"":""digit#3 shown"",""pd_used"":1}",2,0.008333,120.000000,1
Sergio_G01_CNS-LLF5HT7Y0,cpeeg02,offmed_offstim,20260312_133400,2026-03-12 13:34:36.575560,1,3,digit,DIGIT3_OFF,148,2026-03-12 13:41:13.193383,396.575999,0.000000,,1,,,,keyboard,digit#3 off,"{""value"":1,""note"":""digit#3 off"",""pd_used"":0}",2,0.008333,120.000000,1
Sergio_G01_CNS-LLF5HT7Y0,cpeeg02,offmed_offstim,20260312_133400,2026-03-12 13:34:36.575560,1,3,digit,POSTDIG_FIX3_ON,153,2026-03-12 13:41:13.195656,396.575999,1.588857,,,,,,keyboard,after digit#3,"{""note"":""after digit#3""}",2,0.008333,120.000000,1
Sergio_G01_CNS-LLF5HT7Y0,cpeeg02,offmed_offstim,20260312_133400,2026-03-12 13:34:36.575560,1,3,digit,POSTDIG_FIX3_OFF,158,2026-03-12 13:41:14.780141,398.164856,0.052909,,,,,,keyboard,after digit#3,"{""note"":""after digit#3"",""pd_used"":0}",2,0.008333,120.000000,1
Sergio_G01_CNS-LLF5HT7Y0,cpeeg02,offmed_offstim,20260312_133400,2026-03-12 13:34:36.575560,1,3,digit,DIGIT4_ON,144,2026-03-12 13:41:14.834064,398.217765,0.554501,,5,,,,keyboard,digit#4 shown,"{""value"":5,""note"":""digit#4 shown"",""pd_used"":1}",2,0.008333,120.000000,1
Sergio_G01_CNS-LLF5HT7Y0,cpeeg02,offmed_offstim,20260312_133400,2026-03-12 13:34:36.575560,1,3,digit,DIGIT4_OFF,149,2026-03-12 13:41:15.388670,398.772267,0.000000,,5,,,,keyboard,digit#4 off,"{""value"":5,""note"":""digit#4 off"",""pd_used"":0}",2,0.008333,120.000000,1
Sergio_G01_CNS-LLF5HT7Y0,cpeeg02,offmed_offstim,20260312_133400,2026-03-12 13:34:36.575560,1,3,digit,POSTDIG_FIX4_ON,154,2026-03-12 13:41:15.390439,398.772267,1.711372,,,,,,keyboard,after digit#4,"{""note"":""after digit#4""}",2,0.008333,120.000000,1
Sergio_G01_CNS-LLF5HT7Y0,cpeeg02,offmed_offstim,20260312_133400,2026-03-12 13:34:36.575560,1,3,digit,POSTDIG_FIX4_OFF,159,2026-03-12 13:41:17.102156,400.483639,0.057236,,,,,,keyboard,after digit#4,"{""note"":""after digit#4"",""pd_used"":0}",2,0.008333,120.000000,1
Sergio_G01_CNS-LLF5HT7Y0,cpeeg02,offmed_offstim,20260312_133400,2026-03-12 13:34:36.575560,1,3,digit,DIGIT5_ON,145,2026-03-12 13:41:17.158159,400.540875,0.556430,,1,,,,keyboard,digit#5 shown,"{""value"":1,""note"":""digit#5 shown"",""pd_used"":1}",2,0.008333,120.000000,1
Sergio_G01_CNS-LLF5HT7Y0,cpeeg02,offmed_offstim,20260312_133400,2026-03-12 13:34:36.575560,1,3,digit,DIGIT5_OFF,150,2026-03-12 13:41:17.715512,401.097305,0.000000,,1,,,,keyboard,digit#5 off,"{""value"":1,""note"":""digit#5 off"",""pd_used"":0}",2,0.008333,120.000000,1
Sergio_G01_CNS-LLF5HT7Y0,cpeeg02,offmed_offstim,20260312_133400,2026-03-12 13:34:36.575560,1,3,digit,POSTDIG_FIX5_ON,155,2026-03-12 13:41:17.717913,401.097305,3.461424,,,,,,keyboard,after digit#5,"{""note"":""after digit#5""}",2,0.008333,120.000000,1
Sergio_G01_CNS-LLF5HT7Y0,cpeeg02,offmed_offstim,20260312_133400,2026-03-12 13:34:36.575560,1,3,digit,POSTDIG_FIX5_OFF,160,2026-03-12 13:41:21.176193,404.558730,0.057064,,,,,,keyboard,after digit#5,"{""note"":""after digit#5"",""pd_used"":0}",2,0.008333,120.000000,1
Sergio_G01_CNS-LLF5HT7Y0,cpeeg02,offmed_offstim,20260312_133400,2026-03-12 13:34:36.575560,1,3,distractor,DISTRACTOR_ON,50,2026-03-12 13:41:21.233254,404.615794,9.564038,,9+0=10,,,,keyboard,,"{""value"":""9+0=10"",""isCorrectTruth"":false,""trueSum"":9,""pd_used"":1}",2,0.008333,120.000000,1
Sergio_G01_CNS-LLF5HT7Y0,cpeeg02,offmed_offstim,20260312_133400,2026-03-12 13:34:36.575560,1,3,distractor,DISTRACTOR_ANS,51,2026-03-12 13:41:31.152590,414.179832,0.000000,9.564038,9+0=10,F,1,,keyboard,key= (False),"{""value"":""9+0=10"",""entered"":""F"",""rt"":9.5640380999539047,""correct"":1,""note"":""key= (False)"",""truth"":false,""trueSum"":9,""shownSum"":10,""a"":9,""b"":0}",2,0.008333,120.000000,1
Sergio_G01_CNS-LLF5HT7Y0,cpeeg02,offmed_offstim,20260312_133400,2026-03-12 13:34:36.575560,1,3,distractor,ANS_CORRECT,100,2026-03-12 13:41:31.199799,414.179832,0.457865,,,,,,keyboard,,{},2,0.008333,120.000000,1
Sergio_G01_CNS-LLF5HT7Y0,cpeeg02,offmed_offstim,20260312_133400,2026-03-12 13:34:36.575560,1,3,distractor,DISTRACTOR_OFF,52,2026-03-12 13:41:31.254593,414.637696,0.000000,,,,,,keyboard,,"{""pd_used"":0}",2,0.008333,120.000000,1
Sergio_G01_CNS-LLF5HT7Y0,cpeeg02,offmed_offstim,20260312_133400,2026-03-12 13:34:36.575560,1,3,distractor,FIX2_ON,60,2026-03-12 13:41:31.256832,414.637696,3.469242,,,,,,keyboard,immediate after response,"{""note"":""immediate after response""}",2,0.008333,120.000000,1
Sergio_G01_CNS-LLF5HT7Y0,cpeeg02,offmed_offstim,20260312_133400,2026-03-12 13:34:36.575560,1,3,fix2,FIX2_OFF,61,2026-03-12 13:41:34.723718,418.106939,0.056093,,,,,,keyboard,,"{""pd_used"":0}",2,0.008333,120.000000,1
Sergio_G01_CNS-LLF5HT7Y0,cpeeg02,offmed_offstim,20260312_133400,2026-03-12 13:34:36.575560,1,3,probe,DIGIT_RECALL_LINE_1,161,2026-03-12 13:41:34.778513,418.163031,8.327076,,1,,,,keyboard,first recall question,"{""value"":1,""note"":""first recall question"",""pd_used"":1}",2,0.008333,120.000000,1
Sergio_G01_CNS-LLF5HT7Y0,cpeeg02,offmed_offstim,20260312_133400,2026-03-12 13:34:36.575560,1,3,probe,PROBE_DIGIT_OK_1,71,2026-03-12 13:41:43.448921,426.490108,0.439253,8.337064,slot#1,NaN,,,keyboard,probe_digit#1,"{""value"":""slot#1"",""entered"":null,""rt"":8.3370638000778854,""note"":""probe_digit#1""}",2,0.008333,120.000000,1
Sergio_G01_CNS-LLF5HT7Y0,cpeeg02,offmed_offstim,20260312_133400,2026-03-12 13:34:36.575560,1,3,probe,DIGIT1_OFF,146,2026-03-12 13:41:43.548512,426.929361,0.000000,,1,,,,keyboard,digit#1 off,"{""value"":1,""note"":""digit#1 off"",""pd_used"":0}",2,0.008333,120.000000,1
Sergio_G01_CNS-LLF5HT7Y0,cpeeg02,offmed_offstim,20260312_133400,2026-03-12 13:34:36.575560,1,3,probe,POSTDIG_FIX1_ON,151,2026-03-12 13:41:43.550817,426.929361,1.908307,,,,,,keyboard,after digit#1,"{""note"":""after digit#1""}",2,0.008333,120.000000,1
Sergio_G01_CNS-LLF5HT7Y0,cpeeg02,offmed_offstim,20260312_133400,2026-03-12 13:34:36.575560,1,3,probe,POSTDIG_FIX1_OFF,156,2026-03-12 13:41:45.454943,428.837668,0.063885,,,,,,keyboard,after digit#1,"{""note"":""after digit#1"",""pd_used"":0}",2,0.008333,120.000000,1
Sergio_G01_CNS-LLF5HT7Y0,cpeeg02,offmed_offstim,20260312_133400,2026-03-12 13:34:36.575560,1,3,probe,DIGIT_RECALL_LINE_2,162,2026-03-12 13:41:45.518060,428.901553,13.650200,,2,,,,keyboard,next recall question,"{""value"":2,""note"":""next recall question"",""pd_used"":1}",2,0.008333,120.000000,1
Sergio_G01_CNS-LLF5HT7Y0,cpeeg02,offmed_offstim,20260312_133400,2026-03-12 13:34:36.575560,1,3,probe,PROBE_DIGIT_OK_2,71,2026-03-12 13:41:59.492744,442.551754,0.420238,24.398710,slot#2,NaN,,,keyboard,probe_digit#2,"{""value"":""slot#2"",""entered"":null,""rt"":24.398709599976428,""note"":""probe_digit#2""}",2,0.008333,120.000000,1
Sergio_G01_CNS-LLF5HT7Y0,cpeeg02,offmed_offstim,20260312_133400,2026-03-12 13:34:36.575560,1,3,probe,DIGIT2_OFF,147,2026-03-12 13:41:59.593087,442.971992,0.000000,,1,,,,keyboard,digit#2 off,"{""value"":1,""note"":""digit#2 off"",""pd_used"":0}",2,0.008333,120.000000,1
Sergio_G01_CNS-LLF5HT7Y0,cpeeg02,offmed_offstim,20260312_133400,2026-03-12 13:34:36.575560,1,3,probe,POSTDIG_FIX2_ON,152,2026-03-12 13:41:59.594865,442.971992,1.914047,,,,,,keyboard,after digit#2,"{""note"":""after digit#2""}",2,0.008333,120.000000,1
Sergio_G01_CNS-LLF5HT7Y0,cpeeg02,offmed_offstim,20260312_133400,2026-03-12 13:34:36.575560,1,3,probe,POSTDIG_FIX2_OFF,157,2026-03-12 13:42:01.502813,444.886039,0.061836,,,,,,keyboard,after digit#2,"{""note"":""after digit#2"",""pd_used"":0}",2,0.008333,120.000000,1
Sergio_G01_CNS-LLF5HT7Y0,cpeeg02,offmed_offstim,20260312_133400,2026-03-12 13:34:36.575560,1,3,probe,DIGIT_RECALL_LINE_3,163,2026-03-12 13:42:01.564737,444.947875,5.577052,,3,,,,keyboard,next recall question,"{""value"":3,""note"":""next recall question"",""pd_used"":1}",2,0.008333,120.000000,1
Sergio_G01_CNS-LLF5HT7Y0,cpeeg02,offmed_offstim,20260312_133400,2026-03-12 13:34:36.575560,1,3,probe,PROBE_DIGIT_OK_3,71,2026-03-12 13:42:07.540479,450.524926,0.495705,32.371883,slot#3,NaN,,,keyboard,probe_digit#3,"{""value"":""slot#3"",""entered"":null,""rt"":32.371882500010543,""note"":""probe_digit#3""}",2,0.008333,120.000000,1
Sergio_G01_CNS-LLF5HT7Y0,cpeeg02,offmed_offstim,20260312_133400,2026-03-12 13:34:36.575560,1,3,probe,DIGIT3_OFF,148,2026-03-12 13:42:07.639895,451.020631,0.000000,,1,,,,keyboard,digit#3 off,"{""value"":1,""note"":""digit#3 off"",""pd_used"":0}",2,0.008333,120.000000,1
Sergio_G01_CNS-LLF5HT7Y0,cpeeg02,offmed_offstim,20260312_133400,2026-03-12 13:34:36.575560,1,3,probe,POSTDIG_FIX3_ON,153,2026-03-12 13:42:07.641984,451.020631,1.616076,,,,,,keyboard,after digit#3,"{""note"":""after digit#3""}",2,0.008333,120.000000,1
Sergio_G01_CNS-LLF5HT7Y0,cpeeg02,offmed_offstim,20260312_133400,2026-03-12 13:34:36.575560,1,3,probe,POSTDIG_FIX3_OFF,158,2026-03-12 13:42:09.253288,452.636707,0.060996,,,,,,keyboard,after digit#3,"{""note"":""after digit#3"",""pd_used"":0}",2,0.008333,120.000000,1
Sergio_G01_CNS-LLF5HT7Y0,cpeeg02,offmed_offstim,20260312_133400,2026-03-12 13:34:36.575560,1,3,probe,DIGIT_RECALL_LINE_4,164,2026-03-12 13:42:09.314012,452.697704,3.837954,,4,,,,keyboard,next recall question,"{""value"":4,""note"":""next recall question"",""pd_used"":1}",2,0.008333,120.000000,1
Sergio_G01_CNS-LLF5HT7Y0,cpeeg02,offmed_offstim,20260312_133400,2026-03-12 13:34:36.575560,1,3,probe,PROBE_DIGIT_OK_4,71,2026-03-12 13:42:13.697385,456.535658,0.642437,38.382614,slot#4,NaN,,,keyboard,probe_digit#4,"{""value"":""slot#4"",""entered"":null,""rt"":38.382614300004207,""note"":""probe_digit#4""}",2,0.008333,120.000000,1
Sergio_G01_CNS-LLF5HT7Y0,cpeeg02,offmed_offstim,20260312_133400,2026-03-12 13:34:36.575560,1,3,probe,DIGIT4_OFF,149,2026-03-12 13:42:13.796928,457.178096,0.000000,,1,,,,keyboard,digit#4 off,"{""value"":1,""note"":""digit#4 off"",""pd_used"":0}",2,0.008333,120.000000,1
Sergio_G01_CNS-LLF5HT7Y0,cpeeg02,offmed_offstim,20260312_133400,2026-03-12 13:34:36.575560,1,3,probe,POSTDIG_FIX4_ON,154,2026-03-12 13:42:13.799218,457.178096,1.775758,,,,,,keyboard,after digit#4,"{""note"":""after digit#4""}",2,0.008333,120.000000,1
Sergio_G01_CNS-LLF5HT7Y0,cpeeg02,offmed_offstim,20260312_133400,2026-03-12 13:34:36.575560,1,3,probe,POSTDIG_FIX4_OFF,159,2026-03-12 13:42:15.570987,458.953854,0.064780,,,,,,keyboard,after digit#4,"{""note"":""after digit#4"",""pd_used"":0}",2,0.008333,120.000000,1
Sergio_G01_CNS-LLF5HT7Y0,cpeeg02,offmed_offstim,20260312_133400,2026-03-12 13:34:36.575560,1,3,probe,DIGIT_RECALL_LINE_5,165,2026-03-12 13:42:15.635748,459.018634,4.287912,,5,,,,keyboard,next recall question,"{""value"":5,""note"":""next recall question"",""pd_used"":1}",2,0.008333,120.000000,1
Sergio_G01_CNS-LLF5HT7Y0,cpeeg02,offmed_offstim,20260312_133400,2026-03-12 13:34:36.575560,1,3,probe,PROBE_DIGIT_OK_5,71,2026-03-12 13:42:20.307625,463.306546,0.480553,45.153502,slot#5,NaN,,,keyboard,probe_digit#5,"{""value"":""slot#5"",""entered"":null,""rt"":45.153501900029369,""note"":""probe_digit#5""}",2,0.008333,120.000000,1
Sergio_G01_CNS-LLF5HT7Y0,cpeeg02,offmed_offstim,20260312_133400,2026-03-12 13:34:36.575560,1,3,probe,DIGIT5_OFF,150,2026-03-12 13:42:20.405714,463.787099,0.000000,,1,,,,keyboard,digit#5 off,"{""value"":1,""note"":""digit#5 off"",""pd_used"":0}",2,0.008333,120.000000,1
Sergio_G01_CNS-LLF5HT7Y0,cpeeg02,offmed_offstim,20260312_133400,2026-03-12 13:34:36.575560,1,3,probe,POSTDIG_FIX5_ON,155,2026-03-12 13:42:20.407553,463.787099,3.382140,,,,,,keyboard,after digit#5,"{""note"":""after digit#5""}",2,0.008333,120.000000,1
Sergio_G01_CNS-LLF5HT7Y0,cpeeg02,offmed_offstim,20260312_133400,2026-03-12 13:34:36.575560,1,3,probe,POSTDIG_FIX5_OFF,160,2026-03-12 13:42:23.786545,467.169239,0.052872,,,,,,keyboard,after digit#5,"{""note"":""after digit#5"",""pd_used"":0}",2,0.008333,120.000000,1
Sergio_G01_CNS-LLF5HT7Y0,cpeeg02,offmed_offstim,20260312_133400,2026-03-12 13:34:36.575560,1,3,probe,PROBE_DONE,73,2026-03-12 13:42:23.795000,467.222112,0.001835,,,,,,keyboard,probe complete,"{""value"":"""",""note"":""probe complete""}",2,0.008333,120.000000,1
Sergio_G01_CNS-LLF5HT7Y0,cpeeg02,offmed_offstim,20260312_133400,2026-03-12 13:34:36.575560,1,3,probe,TRIAL_END,21,2026-03-12 13:42:23.796626,467.223947,0.045321,,,,,,keyboard,,{},2,0.008333,120.000000,1
Sergio_G01_CNS-LLF5HT7Y0,cpeeg02,offmed_offstim,20260312_133400,2026-03-12 13:34:36.575560,1,4,probe,TRIAL_CHANGE,22,2026-03-12 13:42:23.842512,467.269267,0.002369,,,,,,keyboard,trial transition,"{""note"":""trial transition""}",2,0.008333,120.000000,1
Sergio_G01_CNS-LLF5HT7Y0,cpeeg02,offmed_offstim,20260312_133400,2026-03-12 13:34:36.575560,1,4,probe,TRIAL_START,20,2026-03-12 13:42:23.844600,467.271636,0.061092,,,,,,keyboard,,{},2,0.008333,120.000000,1
Sergio_G01_CNS-LLF5HT7Y0,cpeeg02,offmed_offstim,20260312_133400,2026-03-12 13:34:36.575560,1,4,fix1,FIX1_ON,30,2026-03-12 13:42:23.949457,467.332728,3.222164,,,,,,keyboard,,"{""pd_used"":0}",2,0.008333,120.000000,1
Sergio_G01_CNS-LLF5HT7Y0,cpeeg02,offmed_offstim,20260312_133400,2026-03-12 13:34:36.575560,1,4,fix1,FIX1_OFF,31,2026-03-12 13:42:27.172560,470.554892,0.056796,,,,,,keyboard,,"{""pd_used"":0}",2,0.008333,120.000000,1
Sergio_G01_CNS-LLF5HT7Y0,cpeeg02,offmed_offstim,20260312_133400,2026-03-12 13:34:36.575560,1,4,digit,DIGIT1_ON,141,2026-03-12 13:42:27.229174,470.611688,0.557376,,9,,,,keyboard,digit#1 shown,"{""value"":9,""note"":""digit#1 shown"",""pd_used"":1}",2,0.008333,120.000000,1
Sergio_G01_CNS-LLF5HT7Y0,cpeeg02,offmed_offstim,20260312_133400,2026-03-12 13:34:36.575560,1,4,digit,DIGIT1_OFF,146,2026-03-12 13:42:27.786418,471.169064,0.000000,,9,,,,keyboard,digit#1 off,"{""value"":9,""note"":""digit#1 off"",""pd_used"":0}",2,0.008333,120.000000,1
Sergio_G01_CNS-LLF5HT7Y0,cpeeg02,offmed_offstim,20260312_133400,2026-03-12 13:34:36.575560,1,4,digit,POSTDIG_FIX1_ON,151,2026-03-12 13:42:27.788895,471.169064,1.969713,,,,,,keyboard,after digit#1,"{""note"":""after digit#1""}",2,0.008333,120.000000,1
Sergio_G01_CNS-LLF5HT7Y0,cpeeg02,offmed_offstim,20260312_133400,2026-03-12 13:34:36.575560,1,4,digit,POSTDIG_FIX1_OFF,156,2026-03-12 13:42:29.754428,473.138777,0.054563,,,,,,keyboard,after digit#1,"{""note"":""after digit#1"",""pd_used"":0}",2,0.008333,120.000000,1
Sergio_G01_CNS-LLF5HT7Y0,cpeeg02,offmed_offstim,20260312_133400,2026-03-12 13:34:36.575560,1,4,digit,DIGIT2_ON,142,2026-03-12 13:42:29.809957,473.193340,0.556283,,5,,,,keyboard,digit#2 shown,"{""value"":5,""note"":""digit#2 shown"",""pd_used"":1}",2,0.008333,120.000000,1
Sergio_G01_CNS-LLF5HT7Y0,cpeeg02,offmed_offstim,20260312_133400,2026-03-12 13:34:36.575560,1,4,digit,DIGIT2_OFF,147,2026-03-12 13:42:30.367270,473.749623,0.000000,,5,,,,keyboard,digit#2 off,"{""value"":5,""note"":""digit#2 off"",""pd_used"":0}",2,0.008333,120.000000,1
Sergio_G01_CNS-LLF5HT7Y0,cpeeg02,offmed_offstim,20260312_133400,2026-03-12 13:34:36.575560,1,4,digit,POSTDIG_FIX2_ON,152,2026-03-12 13:42:30.369508,473.749623,2.029028,,,,,,keyboard,after digit#2,"{""note"":""after digit#2""}",2,0.008333,120.000000,1
Sergio_G01_CNS-LLF5HT7Y0,cpeeg02,offmed_offstim,20260312_133400,2026-03-12 13:34:36.575560,1,4,digit,POSTDIG_FIX2_OFF,157,2026-03-12 13:42:32.395787,475.778651,0.056051,,,,,,keyboard,after digit#2,"{""note"":""after digit#2"",""pd_used"":0}",2,0.008333,120.000000,1
Sergio_G01_CNS-LLF5HT7Y0,cpeeg02,offmed_offstim,20260312_133400,2026-03-12 13:34:36.575560,1,4,digit,DIGIT3_ON,143,2026-03-12 13:42:32.451765,475.834702,0.556205,,5,,,,keyboard,digit#3 shown,"{""value"":5,""note"":""digit#3 shown"",""pd_used"":1}",2,0.008333,120.000000,1
Sergio_G01_CNS-LLF5HT7Y0,cpeeg02,offmed_offstim,20260312_133400,2026-03-12 13:34:36.575560,1,4,digit,DIGIT3_OFF,148,2026-03-12 13:42:33.007675,476.390907,0.000000,,5,,,,keyboard,digit#3 off,"{""value"":5,""note"":""digit#3 off"",""pd_used"":0}",2,0.008333,120.000000,1
Sergio_G01_CNS-LLF5HT7Y0,cpeeg02,offmed_offstim,20260312_133400,2026-03-12 13:34:36.575560,1,4,digit,POSTDIG_FIX3_ON,153,2026-03-12 13:42:33.010054,476.390907,1.822539,,,,,,keyboard,after digit#3,"{""note"":""after digit#3""}",2,0.008333,120.000000,1
Sergio_G01_CNS-LLF5HT7Y0,cpeeg02,offmed_offstim,20260312_133400,2026-03-12 13:34:36.575560,1,4,digit,POSTDIG_FIX3_OFF,158,2026-03-12 13:42:34.831531,478.213446,0.057630,,,,,,keyboard,after digit#3,"{""note"":""after digit#3"",""pd_used"":0}",2,0.008333,120.000000,1
Sergio_G01_CNS-LLF5HT7Y0,cpeeg02,offmed_offstim,20260312_133400,2026-03-12 13:34:36.575560,1,4,digit,DIGIT4_ON,144,2026-03-12 13:42:34.887839,478.271076,0.556153,,5,,,,keyboard,digit#4 shown,"{""value"":5,""note"":""digit#4 shown"",""pd_used"":1}",2,0.008333,120.000000,1
Sergio_G01_CNS-LLF5HT7Y0,cpeeg02,offmed_offstim,20260312_133400,2026-03-12 13:34:36.575560,1,4,digit,DIGIT4_OFF,149,2026-03-12 13:42:35.445178,478.827230,0.000000,,5,,,,keyboard,digit#4 off,"{""value"":5,""note"":""digit#4 off"",""pd_used"":0}",2,0.008333,120.000000,1
Sergio_G01_CNS-LLF5HT7Y0,cpeeg02,offmed_offstim,20260312_133400,2026-03-12 13:34:36.575560,1,4,digit,POSTDIG_FIX4_ON,154,2026-03-12 13:42:35.447718,478.827230,1.705966,,,,,,keyboard,after digit#4,"{""note"":""after digit#4""}",2,0.008333,120.000000,1
Sergio_G01_CNS-LLF5HT7Y0,cpeeg02,offmed_offstim,20260312_133400,2026-03-12 13:34:36.575560,1,4,digit,POSTDIG_FIX4_OFF,159,2026-03-12 13:42:37.149956,480.533195,0.054961,,,,,,keyboard,after digit#4,"{""note"":""after digit#4"",""pd_used"":0}",2,0.008333,120.000000,1
Sergio_G01_CNS-LLF5HT7Y0,cpeeg02,offmed_offstim,20260312_133400,2026-03-12 13:34:36.575560,1,4,digit,DIGIT5_ON,145,2026-03-12 13:42:37.205218,480.588156,0.556416,,3,,,,keyboard,digit#5 shown,"{""value"":3,""note"":""digit#5 shown"",""pd_used"":1}",2,0.008333,120.000000,1
Sergio_G01_CNS-LLF5HT7Y0,cpeeg02,offmed_offstim,20260312_133400,2026-03-12 13:34:36.575560,1,4,digit,DIGIT5_OFF,150,2026-03-12 13:42:37.761986,481.144572,0.000000,,3,,,,keyboard,digit#5 off,"{""value"":3,""note"":""digit#5 off"",""pd_used"":0}",2,0.008333,120.000000,1
Sergio_G01_CNS-LLF5HT7Y0,cpeeg02,offmed_offstim,20260312_133400,2026-03-12 13:34:36.575560,1,4,digit,POSTDIG_FIX5_ON,155,2026-03-12 13:42:37.764567,481.144572,3.356623,,,,,,keyboard,after digit#5,"{""note"":""after digit#5""}",2,0.008333,120.000000,1
Sergio_G01_CNS-LLF5HT7Y0,cpeeg02,offmed_offstim,20260312_133400,2026-03-12 13:34:36.575560,1,4,digit,POSTDIG_FIX5_OFF,160,2026-03-12 13:42:41.118226,484.501195,0.058170,,,,,,keyboard,after digit#5,"{""note"":""after digit#5"",""pd_used"":0}",2,0.008333,120.000000,1
Sergio_G01_CNS-LLF5HT7Y0,cpeeg02,offmed_offstim,20260312_133400,2026-03-12 13:34:36.575560,1,4,distractor,DISTRACTOR_ON,50,2026-03-12 13:42:41.176468,484.559365,19.646269,,8+4=15,,,,keyboard,,"{""value"":""8+4=15"",""isCorrectTruth"":false,""trueSum"":12,""pd_used"":1}",2,0.008333,120.000000,1
Sergio_G01_CNS-LLF5HT7Y0,cpeeg02,offmed_offstim,20260312_133400,2026-03-12 13:34:36.575560,1,4,distractor,DISTRACTOR_ANS,51,2026-03-12 13:43:01.166799,504.205634,0.000000,19.646269,8+4=15,F,1,,keyboard,key= (False),"{""value"":""8+4=15"",""entered"":""F"",""rt"":19.646268699900247,""correct"":1,""note"":""key= (False)"",""truth"":false,""trueSum"":12,""shownSum"":15,""a"":8,""b"":4}",2,0.008333,120.000000,1
Sergio_G01_CNS-LLF5HT7Y0,cpeeg02,offmed_offstim,20260312_133400,2026-03-12 13:34:36.575560,1,4,distractor,ANS_CORRECT,100,2026-03-12 13:43:01.213406,504.205634,0.445001,,,,,,keyboard,,{},2,0.008333,120.000000,1
Sergio_G01_CNS-LLF5HT7Y0,cpeeg02,offmed_offstim,20260312_133400,2026-03-12 13:34:36.575560,1,4,distractor,DISTRACTOR_OFF,52,2026-03-12 13:43:01.266111,504.650635,0.000000,,,,,,keyboard,,"{""pd_used"":0}",2,0.008333,120.000000,1
Sergio_G01_CNS-LLF5HT7Y0,cpeeg02,offmed_offstim,20260312_133400,2026-03-12 13:34:36.575560,1,4,distractor,FIX2_ON,60,2026-03-12 13:43:01.267718,504.650635,3.336106,,,,,,keyboard,immediate after response,"{""note"":""immediate after response""}",2,0.008333,120.000000,1
Sergio_G01_CNS-LLF5HT7Y0,cpeeg02,offmed_offstim,20260312_133400,2026-03-12 13:34:36.575560,1,4,fix2,FIX2_OFF,61,2026-03-12 13:43:04.603814,507.986741,0.056389,,,,,,keyboard,,"{""pd_used"":0}",2,0.008333,120.000000,1
Sergio_G01_CNS-LLF5HT7Y0,cpeeg02,offmed_offstim,20260312_133400,2026-03-12 13:34:36.575560,1,4,probe,DIGIT_RECALL_LINE_1,161,2026-03-12 13:43:04.660443,508.043130,6.401295,,1,,,,keyboard,first recall question,"{""value"":1,""note"":""first recall question"",""pd_used"":1}",2,0.008333,120.000000,1
Sergio_G01_CNS-LLF5HT7Y0,cpeeg02,offmed_offstim,20260312_133400,2026-03-12 13:34:36.575560,1,4,probe,PROBE_DIGIT_OK_1,71,2026-03-12 13:43:11.388607,514.444425,0.424586,6.411280,slot#1,NaN,,,keyboard,probe_digit#1,"{""value"":""slot#1"",""entered"":null,""rt"":6.4112804000033066,""note"":""probe_digit#1""}",2,0.008333,120.000000,1
Sergio_G01_CNS-LLF5HT7Y0,cpeeg02,offmed_offstim,20260312_133400,2026-03-12 13:34:36.575560,1,4,probe,DIGIT1_OFF,146,2026-03-12 13:43:11.489718,514.869010,0.000000,,3,,,,keyboard,digit#1 off,"{""value"":3,""note"":""digit#1 off"",""pd_used"":0}",2,0.008333,120.000000,1
Sergio_G01_CNS-LLF5HT7Y0,cpeeg02,offmed_offstim,20260312_133400,2026-03-12 13:34:36.575560,1,4,probe,POSTDIG_FIX1_ON,151,2026-03-12 13:43:11.491634,514.869010,1.948590,,,,,,keyboard,after digit#1,"{""note"":""after digit#1""}",2,0.008333,120.000000,1
Sergio_G01_CNS-LLF5HT7Y0,cpeeg02,offmed_offstim,20260312_133400,2026-03-12 13:34:36.575560,1,4,probe,POSTDIG_FIX1_OFF,156,2026-03-12 13:43:13.435239,516.817600,0.062661,,,,,,keyboard,after digit#1,"{""note"":""after digit#1"",""pd_used"":0}",2,0.008333,120.000000,1
Sergio_G01_CNS-LLF5HT7Y0,cpeeg02,offmed_offstim,20260312_133400,2026-03-12 13:34:36.575560,1,4,probe,DIGIT_RECALL_LINE_2,162,2026-03-12 13:43:13.497326,516.880261,4.602044,,2,,,,keyboard,next recall question,"{""value"":2,""note"":""next recall question"",""pd_used"":1}",2,0.008333,120.000000,1
Sergio_G01_CNS-LLF5HT7Y0,cpeeg02,offmed_offstim,20260312_133400,2026-03-12 13:34:36.575560,1,4,probe,PROBE_DIGIT_OK_2,71,2026-03-12 13:43:18.458928,521.482304,0.457060,13.449160,slot#2,NaN,,,keyboard,probe_digit#2,"{""value"":""slot#2"",""entered"":null,""rt"":13.449160099960864,""note"":""probe_digit#2""}",2,0.008333,120.000000,1
Sergio_G01_CNS-LLF5HT7Y0,cpeeg02,offmed_offstim,20260312_133400,2026-03-12 13:34:36.575560,1,4,probe,DIGIT2_OFF,147,2026-03-12 13:43:18.559277,521.939364,0.000000,,3,,,,keyboard,digit#2 off,"{""value"":3,""note"":""digit#2 off"",""pd_used"":0}",2,0.008333,120.000000,1
Sergio_G01_CNS-LLF5HT7Y0,cpeeg02,offmed_offstim,20260312_133400,2026-03-12 13:34:36.575560,1,4,probe,POSTDIG_FIX2_ON,152,2026-03-12 13:43:18.561681,521.939364,1.738797,,,,,,keyboard,after digit#2,"{""note"":""after digit#2""}",2,0.008333,120.000000,1
Sergio_G01_CNS-LLF5HT7Y0,cpeeg02,offmed_offstim,20260312_133400,2026-03-12 13:34:36.575560,1,4,probe,POSTDIG_FIX2_OFF,157,2026-03-12 13:43:20.295417,523.678161,0.065339,,,,,,keyboard,after digit#2,"{""note"":""after digit#2"",""pd_used"":0}",2,0.008333,120.000000,1
Sergio_G01_CNS-LLF5HT7Y0,cpeeg02,offmed_offstim,20260312_133400,2026-03-12 13:34:36.575560,1,4,probe,DIGIT_RECALL_LINE_3,163,2026-03-12 13:43:20.360531,523.743500,2.881272,,3,,,,keyboard,next recall question,"{""value"":3,""note"":""next recall question"",""pd_used"":1}",2,0.008333,120.000000,1
Sergio_G01_CNS-LLF5HT7Y0,cpeeg02,offmed_offstim,20260312_133400,2026-03-12 13:34:36.575560,1,4,probe,PROBE_DIGIT_OK_3,71,2026-03-12 13:43:23.748685,526.624772,0.603381,18.591628,slot#3,NaN,,,keyboard,probe_digit#3,"{""value"":""slot#3"",""entered"":null,""rt"":18.591627599904314,""note"":""probe_digit#3""}",2,0.008333,120.000000,1
Sergio_G01_CNS-LLF5HT7Y0,cpeeg02,offmed_offstim,20260312_133400,2026-03-12 13:34:36.575560,1,4,probe,DIGIT3_OFF,148,2026-03-12 13:43:23.848443,527.228153,0.000000,,3,,,,keyboard,digit#3 off,"{""value"":3,""note"":""digit#3 off"",""pd_used"":0}",2,0.008333,120.000000,1
Sergio_G01_CNS-LLF5HT7Y0,cpeeg02,offmed_offstim,20260312_133400,2026-03-12 13:34:36.575560,1,4,probe,POSTDIG_FIX3_ON,153,2026-03-12 13:43:23.850712,527.228153,1.824892,,,,,,keyboard,after digit#3,"{""note"":""after digit#3""}",2,0.008333,120.000000,1
Sergio_G01_CNS-LLF5HT7Y0,cpeeg02,offmed_offstim,20260312_133400,2026-03-12 13:34:36.575560,1,4,probe,POSTDIG_FIX3_OFF,158,2026-03-12 13:43:25.670950,529.053045,0.064639,,,,,,keyboard,after digit#3,"{""note"":""after digit#3"",""pd_used"":0}",2,0.008333,120.000000,1
Sergio_G01_CNS-LLF5HT7Y0,cpeeg02,offmed_offstim,20260312_133400,2026-03-12 13:34:36.575560,1,4,probe,DIGIT_RECALL_LINE_4,164,2026-03-12 13:43:25.734737,529.117684,3.180257,,4,,,,keyboard,next recall question,"{""value"":4,""note"":""next recall question"",""pd_used"":1}",2,0.008333,120.000000,1
Sergio_G01_CNS-LLF5HT7Y0,cpeeg02,offmed_offstim,20260312_133400,2026-03-12 13:34:36.575560,1,4,probe,PROBE_DIGIT_OK_4,71,2026-03-12 13:43:29.346342,532.297941,0.529681,24.264797,slot#4,NaN,,,keyboard,probe_digit#4,"{""value"":""slot#4"",""entered"":null,""rt"":24.264796799980104,""note"":""probe_digit#4""}",2,0.008333,120.000000,1
Sergio_G01_CNS-LLF5HT7Y0,cpeeg02,offmed_offstim,20260312_133400,2026-03-12 13:34:36.575560,1,4,probe,DIGIT4_OFF,149,2026-03-12 13:43:29.445890,532.827622,0.000000,,3,,,,keyboard,digit#4 off,"{""value"":3,""note"":""digit#4 off"",""pd_used"":0}",2,0.008333,120.000000,1
Sergio_G01_CNS-LLF5HT7Y0,cpeeg02,offmed_offstim,20260312_133400,2026-03-12 13:34:36.575560,1,4,probe,POSTDIG_FIX4_ON,154,2026-03-12 13:43:29.448494,532.827622,1.751420,,,,,,keyboard,after digit#4,"{""note"":""after digit#4""}",2,0.008333,120.000000,1
Sergio_G01_CNS-LLF5HT7Y0,cpeeg02,offmed_offstim,20260312_133400,2026-03-12 13:34:36.575560,1,4,probe,POSTDIG_FIX4_OFF,159,2026-03-12 13:43:31.196777,534.579042,0.063640,,,,,,keyboard,after digit#4,"{""note"":""after digit#4"",""pd_used"":0}",2,0.008333,120.000000,1
Sergio_G01_CNS-LLF5HT7Y0,cpeeg02,offmed_offstim,20260312_133400,2026-03-12 13:34:36.575560,1,4,probe,DIGIT_RECALL_LINE_5,165,2026-03-12 13:43:31.259814,534.642682,12.870558,,5,,,,keyboard,next recall question,"{""value"":5,""note"":""next recall question"",""pd_used"":1}",2,0.008333,120.000000,1
Sergio_G01_CNS-LLF5HT7Y0,cpeeg02,offmed_offstim,20260312_133400,2026-03-12 13:34:36.575560,1,4,probe,PROBE_DIGIT_OK_5,71,2026-03-12 13:43:44.559778,547.513240,0.525615,39.480096,slot#5,NaN,,,keyboard,probe_digit#5,"{""value"":""slot#5"",""entered"":null,""rt"":39.480096099898219,""note"":""probe_digit#5""}",2,0.008333,120.000000,1
Sergio_G01_CNS-LLF5HT7Y0,cpeeg02,offmed_offstim,20260312_133400,2026-03-12 13:34:36.575560,1,4,probe,DIGIT5_OFF,150,2026-03-12 13:43:44.657310,548.038855,0.000000,,3,,,,keyboard,digit#5 off,"{""value"":3,""note"":""digit#5 off"",""pd_used"":0}",2,0.008333,120.000000,1
Sergio_G01_CNS-LLF5HT7Y0,cpeeg02,offmed_offstim,20260312_133400,2026-03-12 13:34:36.575560,1,4,probe,POSTDIG_FIX5_ON,155,2026-03-12 13:43:44.659373,548.038855,3.466256,,,,,,keyboard,after digit#5,"{""note"":""after digit#5""}",2,0.008333,120.000000,1
Sergio_G01_CNS-LLF5HT7Y0,cpeeg02,offmed_offstim,20260312_133400,2026-03-12 13:34:36.575560,1,4,probe,POSTDIG_FIX5_OFF,160,2026-03-12 13:43:48.121688,551.505111,0.052674,,,,,,keyboard,after digit#5,"{""note"":""after digit#5"",""pd_used"":0}",2,0.008333,120.000000,1
Sergio_G01_CNS-LLF5HT7Y0,cpeeg02,offmed_offstim,20260312_133400,2026-03-12 13:34:36.575560,1,4,probe,PROBE_DONE,73,2026-03-12 13:43:48.130534,551.557785,0.001606,,,,,,keyboard,probe complete,"{""value"":"""",""note"":""probe complete""}",2,0.008333,120.000000,1
Sergio_G01_CNS-LLF5HT7Y0,cpeeg02,offmed_offstim,20260312_133400,2026-03-12 13:34:36.575560,1,4,probe,TRIAL_END,21,2026-03-12 13:43:48.132045,551.559391,0.045619,,,,,,keyboard,,{},2,0.008333,120.000000,1
Sergio_G01_CNS-LLF5HT7Y0,cpeeg02,offmed_offstim,20260312_133400,2026-03-12 13:34:36.575560,1,5,probe,TRIAL_CHANGE,22,2026-03-12 13:43:48.178612,551.605010,0.003094,,,,,,keyboard,trial transition,"{""note"":""trial transition""}",2,0.008333,120.000000,1
Sergio_G01_CNS-LLF5HT7Y0,cpeeg02,offmed_offstim,20260312_133400,2026-03-12 13:34:36.575560,1,5,probe,TRIAL_START,20,2026-03-12 13:43:48.181255,551.608104,0.056924,,,,,,keyboard,,{},2,0.008333,120.000000,1
Sergio_G01_CNS-LLF5HT7Y0,cpeeg02,offmed_offstim,20260312_133400,2026-03-12 13:34:36.575560,1,5,fix1,FIX1_ON,30,2026-03-12 13:43:48.280833,551.665028,3.436010,,,,,,keyboard,,"{""pd_used"":0}",2,0.008333,120.000000,1
Sergio_G01_CNS-LLF5HT7Y0,cpeeg02,offmed_offstim,20260312_133400,2026-03-12 13:34:36.575560,1,5,fix1,FIX1_OFF,31,2026-03-12 13:43:51.718210,555.101037,0.057660,,,,,,keyboard,,"{""pd_used"":0}",2,0.008333,120.000000,1
Sergio_G01_CNS-LLF5HT7Y0,cpeeg02,offmed_offstim,20260312_133400,2026-03-12 13:34:36.575560,1,5,digit,DIGIT1_ON,141,2026-03-12 13:43:51.775564,555.158697,0.556436,,3,,,,keyboard,digit#1 shown,"{""value"":3,""note"":""digit#1 shown"",""pd_used"":1}",2,0.008333,120.000000,1
Sergio_G01_CNS-LLF5HT7Y0,cpeeg02,offmed_offstim,20260312_133400,2026-03-12 13:34:36.575560,1,5,digit,DIGIT1_OFF,146,2026-03-12 13:43:52.333138,555.715133,0.000000,,3,,,,keyboard,digit#1 off,"{""value"":3,""note"":""digit#1 off"",""pd_used"":0}",2,0.008333,120.000000,1
Sergio_G01_CNS-LLF5HT7Y0,cpeeg02,offmed_offstim,20260312_133400,2026-03-12 13:34:36.575560,1,5,digit,POSTDIG_FIX1_ON,151,2026-03-12 13:43:52.335423,555.715133,1.587494,,,,,,keyboard,after digit#1,"{""note"":""after digit#1""}",2,0.008333,120.000000,1
Sergio_G01_CNS-LLF5HT7Y0,cpeeg02,offmed_offstim,20260312_133400,2026-03-12 13:34:36.575560,1,5,digit,POSTDIG_FIX1_OFF,156,2026-03-12 13:43:53.920703,557.302627,0.057970,,,,,,keyboard,after digit#1,"{""note"":""after digit#1"",""pd_used"":0}",2,0.008333,120.000000,1
Sergio_G01_CNS-LLF5HT7Y0,cpeeg02,offmed_offstim,20260312_133400,2026-03-12 13:34:36.575560,1,5,digit,DIGIT2_ON,142,2026-03-12 13:43:53.977450,557.360597,0.556489,,4,,,,keyboard,digit#2 shown,"{""value"":4,""note"":""digit#2 shown"",""pd_used"":1}",2,0.008333,120.000000,1
Sergio_G01_CNS-LLF5HT7Y0,cpeeg02,offmed_offstim,20260312_133400,2026-03-12 13:34:36.575560,1,5,digit,DIGIT2_OFF,147,2026-03-12 13:43:54.534189,557.917087,0.000000,,4,,,,keyboard,digit#2 off,"{""value"":4,""note"":""digit#2 off"",""pd_used"":0}",2,0.008333,120.000000,1
Sergio_G01_CNS-LLF5HT7Y0,cpeeg02,offmed_offstim,20260312_133400,2026-03-12 13:34:36.575560,1,5,digit,POSTDIG_FIX2_ON,152,2026-03-12 13:43:54.536427,557.917087,1.746877,,,,,,keyboard,after digit#2,"{""note"":""after digit#2""}",2,0.008333,120.000000,1
Sergio_G01_CNS-LLF5HT7Y0,cpeeg02,offmed_offstim,20260312_133400,2026-03-12 13:34:36.575560,1,5,digit,POSTDIG_FIX2_OFF,157,2026-03-12 13:43:56.282278,559.663964,0.057588,,,,,,keyboard,after digit#2,"{""note"":""after digit#2"",""pd_used"":0}",2,0.008333,120.000000,1
Sergio_G01_CNS-LLF5HT7Y0,cpeeg02,offmed_offstim,20260312_133400,2026-03-12 13:34:36.575560,1,5,digit,DIGIT3_ON,143,2026-03-12 13:43:56.338439,559.721552,0.556159,,1,,,,keyboard,digit#3 shown,"{""value"":1,""note"":""digit#3 shown"",""pd_used"":1}",2,0.008333,120.000000,1
Sergio_G01_CNS-LLF5HT7Y0,cpeeg02,offmed_offstim,20260312_133400,2026-03-12 13:34:36.575560,1,5,digit,DIGIT3_OFF,148,2026-03-12 13:43:56.894843,560.277710,0.000000,,1,,,,keyboard,digit#3 off,"{""value"":1,""note"":""digit#3 off"",""pd_used"":0}",2,0.008333,120.000000,1
Sergio_G01_CNS-LLF5HT7Y0,cpeeg02,offmed_offstim,20260312_133400,2026-03-12 13:34:36.575560,1,5,digit,POSTDIG_FIX3_ON,153,2026-03-12 13:43:56.897071,560.277710,1.994476,,,,,,keyboard,after digit#3,"{""note"":""after digit#3""}",2,0.008333,120.000000,1
Sergio_G01_CNS-LLF5HT7Y0,cpeeg02,offmed_offstim,20260312_133400,2026-03-12 13:34:36.575560,1,5,digit,POSTDIG_FIX3_OFF,158,2026-03-12 13:43:58.890939,562.272186,0.056987,,,,,,keyboard,after digit#3,"{""note"":""after digit#3"",""pd_used"":0}",2,0.008333,120.000000,1
Sergio_G01_CNS-LLF5HT7Y0,cpeeg02,offmed_offstim,20260312_133400,2026-03-12 13:34:36.575560,1,5,digit,DIGIT4_ON,144,2026-03-12 13:43:58.946240,562.329173,0.556850,,4,,,,keyboard,digit#4 shown,"{""value"":4,""note"":""digit#4 shown"",""pd_used"":1}",2,0.008333,120.000000,1
Sergio_G01_CNS-LLF5HT7Y0,cpeeg02,offmed_offstim,20260312_133400,2026-03-12 13:34:36.575560,1,5,digit,DIGIT4_OFF,149,2026-03-12 13:43:59.503618,562.886023,0.000000,,4,,,,keyboard,digit#4 off,"{""value"":4,""note"":""digit#4 off"",""pd_used"":0}",2,0.008333,120.000000,1
Sergio_G01_CNS-LLF5HT7Y0,cpeeg02,offmed_offstim,20260312_133400,2026-03-12 13:34:36.575560,1,5,digit,POSTDIG_FIX4_ON,154,2026-03-12 13:43:59.505931,562.886023,1.647321,,,,,,keyboard,after digit#4,"{""note"":""after digit#4""}",2,0.008333,120.000000,1
Sergio_G01_CNS-LLF5HT7Y0,cpeeg02,offmed_offstim,20260312_133400,2026-03-12 13:34:36.575560,1,5,digit,POSTDIG_FIX4_OFF,159,2026-03-12 13:44:01.150490,564.533344,0.056652,,,,,,keyboard,after digit#4,"{""note"":""after digit#4"",""pd_used"":0}",2,0.008333,120.000000,1
Sergio_G01_CNS-LLF5HT7Y0,cpeeg02,offmed_offstim,20260312_133400,2026-03-12 13:34:36.575560,1,5,digit,DIGIT5_ON,145,2026-03-12 13:44:01.206888,564.589996,0.555835,,0,,,,keyboard,digit#5 shown,"{""value"":0,""note"":""digit#5 shown"",""pd_used"":1}",2,0.008333,120.000000,1
Sergio_G01_CNS-LLF5HT7Y0,cpeeg02,offmed_offstim,20260312_133400,2026-03-12 13:34:36.575560,1,5,digit,DIGIT5_OFF,150,2026-03-12 13:44:01.763048,565.145831,0.000000,,0,,,,keyboard,digit#5 off,"{""value"":0,""note"":""digit#5 off"",""pd_used"":0}",2,0.008333,120.000000,1
Sergio_G01_CNS-LLF5HT7Y0,cpeeg02,offmed_offstim,20260312_133400,2026-03-12 13:34:36.575560,1,5,digit,POSTDIG_FIX5_ON,155,2026-03-12 13:44:01.765554,565.145831,3.486438,,,,,,keyboard,after digit#5,"{""note"":""after digit#5""}",2,0.008333,120.000000,1
Sergio_G01_CNS-LLF5HT7Y0,cpeeg02,offmed_offstim,20260312_133400,2026-03-12 13:34:36.575560,1,5,digit,POSTDIG_FIX5_OFF,160,2026-03-12 13:44:05.248521,568.632270,0.060994,,,,,,keyboard,after digit#5,"{""note"":""after digit#5"",""pd_used"":0}",2,0.008333,120.000000,1
Sergio_G01_CNS-LLF5HT7Y0,cpeeg02,offmed_offstim,20260312_133400,2026-03-12 13:34:36.575560,1,5,distractor,DISTRACTOR_ON,50,2026-03-12 13:44:05.310695,568.693264,20.058918,,2+4=9,,,,keyboard,,"{""value"":""2+4=9"",""isCorrectTruth"":false,""trueSum"":6,""pd_used"":1}",2,0.008333,120.000000,1
Sergio_G01_CNS-LLF5HT7Y0,cpeeg02,offmed_offstim,20260312_133400,2026-03-12 13:34:36.575560,1,5,distractor,DISTRACTOR_OFF,52,2026-03-12 13:44:25.369553,588.752182,0.000000,,,,,,keyboard,,"{""pd_used"":0}",2,0.008333,120.000000,1
Sergio_G01_CNS-LLF5HT7Y0,cpeeg02,offmed_offstim,20260312_133400,2026-03-12 13:34:36.575560,1,5,distractor,FIX2_ON,60,2026-03-12 13:44:25.372693,588.752182,3.388578,,,,,,keyboard,deadline reached,"{""note"":""deadline reached""}",2,0.008333,120.000000,1
Sergio_G01_CNS-LLF5HT7Y0,cpeeg02,offmed_offstim,20260312_133400,2026-03-12 13:34:36.575560,1,5,fix2,FIX2_OFF,61,2026-03-12 13:44:28.757501,592.140760,0.057272,,,,,,keyboard,,"{""pd_used"":0}",2,0.008333,120.000000,1
Sergio_G01_CNS-LLF5HT7Y0,cpeeg02,offmed_offstim,20260312_133400,2026-03-12 13:34:36.575560,1,5,probe,DIGIT_RECALL_LINE_1,161,2026-03-12 13:44:28.815314,592.198032,8.555793,,1,,,,keyboard,first recall question,"{""value"":1,""note"":""first recall question"",""pd_used"":1}",2,0.008333,120.000000,1
Sergio_G01_CNS-LLF5HT7Y0,cpeeg02,offmed_offstim,20260312_133400,2026-03-12 13:34:36.575560,1,5,probe,PROBE_DIGIT_OK_1,71,2026-03-12 13:44:37.801387,600.753825,0.525145,8.566496,slot#1,NaN,,,keyboard,probe_digit#1,"{""value"":""slot#1"",""entered"":null,""rt"":8.56649589992594,""note"":""probe_digit#1""}",2,0.008333,120.000000,1
Sergio_G01_CNS-LLF5HT7Y0,cpeeg02,offmed_offstim,20260312_133400,2026-03-12 13:34:36.575560,1,5,probe,DIGIT1_OFF,146,2026-03-12 13:44:37.896163,601.278970,0.000000,,0,,,,keyboard,digit#1 off,"{""value"":0,""note"":""digit#1 off"",""pd_used"":0}",2,0.008333,120.000000,1
Sergio_G01_CNS-LLF5HT7Y0,cpeeg02,offmed_offstim,20260312_133400,2026-03-12 13:34:36.575560,1,5,probe,POSTDIG_FIX1_ON,151,2026-03-12 13:44:37.896946,601.278970,1.748185,,,,,,keyboard,after digit#1,"{""note"":""after digit#1""}",2,0.008333,120.000000,1
Sergio_G01_CNS-LLF5HT7Y0,cpeeg02,offmed_offstim,20260312_133400,2026-03-12 13:34:36.575560,1,5,probe,POSTDIG_FIX1_OFF,156,2026-03-12 13:44:39.644185,603.027155,0.062430,,,,,,keyboard,after digit#1,"{""note"":""after digit#1"",""pd_used"":0}",2,0.008333,120.000000,1
Sergio_G01_CNS-LLF5HT7Y0,cpeeg02,offmed_offstim,20260312_133400,2026-03-12 13:34:36.575560,1,5,probe,DIGIT_RECALL_LINE_2,162,2026-03-12 13:44:39.706435,603.089585,3.906894,,2,,,,keyboard,next recall question,"{""value"":2,""note"":""next recall question"",""pd_used"":1}",2,0.008333,120.000000,1
Sergio_G01_CNS-LLF5HT7Y0,cpeeg02,offmed_offstim,20260312_133400,2026-03-12 13:34:36.575560,1,5,probe,PROBE_DIGIT_OK_2,71,2026-03-12 13:44:44.217093,606.996479,0.697927,14.809149,slot#2,NaN,,,keyboard,probe_digit#2,"{""value"":""slot#2"",""entered"":null,""rt"":14.809149399981834,""note"":""probe_digit#2""}",2,0.008333,120.000000,1
Sergio_G01_CNS-LLF5HT7Y0,cpeeg02,offmed_offstim,20260312_133400,2026-03-12 13:34:36.575560,1,5,probe,DIGIT2_OFF,147,2026-03-12 13:44:44.314392,607.694406,0.000000,,0,,,,keyboard,digit#2 off,"{""value"":0,""note"":""digit#2 off"",""pd_used"":0}",2,0.008333,120.000000,1
Sergio_G01_CNS-LLF5HT7Y0,cpeeg02,offmed_offstim,20260312_133400,2026-03-12 13:34:36.575560,1,5,probe,POSTDIG_FIX2_ON,152,2026-03-12 13:44:44.316925,607.694406,2.057765,,,,,,keyboard,after digit#2,"{""note"":""after digit#2""}",2,0.008333,120.000000,1
Sergio_G01_CNS-LLF5HT7Y0,cpeeg02,offmed_offstim,20260312_133400,2026-03-12 13:34:36.575560,1,5,probe,POSTDIG_FIX2_OFF,157,2026-03-12 13:44:46.369918,609.752171,0.064184,,,,,,keyboard,after digit#2,"{""note"":""after digit#2"",""pd_used"":0}",2,0.008333,120.000000,1
Sergio_G01_CNS-LLF5HT7Y0,cpeeg02,offmed_offstim,20260312_133400,2026-03-12 13:34:36.575560,1,5,probe,DIGIT_RECALL_LINE_3,163,2026-03-12 13:44:46.433313,609.816355,13.297552,,3,,,,keyboard,next recall question,"{""value"":3,""note"":""next recall question"",""pd_used"":1}",2,0.008333,120.000000,1
Sergio_G01_CNS-LLF5HT7Y0,cpeeg02,offmed_offstim,20260312_133400,2026-03-12 13:34:36.575560,1,5,probe,PROBE_DIGIT_OK_3,71,2026-03-12 13:45:00.131931,623.113907,0.497179,30.926577,slot#3,NaN,,,keyboard,probe_digit#3,"{""value"":""slot#3"",""entered"":null,""rt"":30.926577499951236,""note"":""probe_digit#3""}",2,0.008333,120.000000,1
Sergio_G01_CNS-LLF5HT7Y0,cpeeg02,offmed_offstim,20260312_133400,2026-03-12 13:34:36.575560,1,5,probe,DIGIT3_OFF,148,2026-03-12 13:45:00.230563,623.611086,0.000000,,0,,,,keyboard,digit#3 off,"{""value"":0,""note"":""digit#3 off"",""pd_used"":0}",2,0.008333,120.000000,1
Sergio_G01_CNS-LLF5HT7Y0,cpeeg02,offmed_offstim,20260312_133400,2026-03-12 13:34:36.575560,1,5,probe,POSTDIG_FIX3_ON,153,2026-03-12 13:45:00.232954,623.611086,1.774025,,,,,,keyboard,after digit#3,"{""note"":""after digit#3""}",2,0.008333,120.000000,1
Sergio_G01_CNS-LLF5HT7Y0,cpeeg02,offmed_offstim,20260312_133400,2026-03-12 13:34:36.575560,1,5,probe,POSTDIG_FIX3_OFF,158,2026-03-12 13:45:02.000226,625.385111,0.059198,,,,,,keyboard,after digit#3,"{""note"":""after digit#3"",""pd_used"":0}",2,0.008333,120.000000,1
Sergio_G01_CNS-LLF5HT7Y0,cpeeg02,offmed_offstim,20260312_133400,2026-03-12 13:34:36.575560,1,5,probe,DIGIT_RECALL_LINE_4,164,2026-03-12 13:45:02.060534,625.444309,1.306727,,4,,,,keyboard,next recall question,"{""value"":4,""note"":""next recall question"",""pd_used"":1}",2,0.008333,120.000000,1
Sergio_G01_CNS-LLF5HT7Y0,cpeeg02,offmed_offstim,20260312_133400,2026-03-12 13:34:36.575560,1,5,probe,PROBE_DIGIT_OK_4,71,2026-03-12 13:45:03.884663,626.751035,0.614421,34.563706,slot#4,NaN,,,keyboard,probe_digit#4,"{""value"":""slot#4"",""entered"":null,""rt"":34.563705899985507,""note"":""probe_digit#4""}",2,0.008333,120.000000,1
Sergio_G01_CNS-LLF5HT7Y0,cpeeg02,offmed_offstim,20260312_133400,2026-03-12 13:34:36.575560,1,5,probe,DIGIT4_OFF,149,2026-03-12 13:45:03.984637,627.365456,0.000000,,0,,,,keyboard,digit#4 off,"{""value"":0,""note"":""digit#4 off"",""pd_used"":0}",2,0.008333,120.000000,1
Sergio_G01_CNS-LLF5HT7Y0,cpeeg02,offmed_offstim,20260312_133400,2026-03-12 13:34:36.575560,1,5,probe,POSTDIG_FIX4_ON,154,2026-03-12 13:45:03.986776,627.365456,1.683664,,,,,,keyboard,after digit#4,"{""note"":""after digit#4""}",2,0.008333,120.000000,1
Sergio_G01_CNS-LLF5HT7Y0,cpeeg02,offmed_offstim,20260312_133400,2026-03-12 13:34:36.575560,1,5,probe,POSTDIG_FIX4_OFF,159,2026-03-12 13:45:05.666710,629.049120,0.062146,,,,,,keyboard,after digit#4,"{""note"":""after digit#4"",""pd_used"":0}",2,0.008333,120.000000,1
Sergio_G01_CNS-LLF5HT7Y0,cpeeg02,offmed_offstim,20260312_133400,2026-03-12 13:34:36.575560,1,5,probe,DIGIT_RECALL_LINE_5,165,2026-03-12 13:45:05.728318,629.111266,2.351174,,5,,,,keyboard,next recall question,"{""value"":5,""note"":""next recall question"",""pd_used"":1}",2,0.008333,120.000000,1
Sergio_G01_CNS-LLF5HT7Y0,cpeeg02,offmed_offstim,20260312_133400,2026-03-12 13:34:36.575560,1,5,probe,PROBE_DIGIT_OK_5,71,2026-03-12 13:45:08.486820,631.462441,0.504987,39.275111,slot#5,NaN,,,keyboard,probe_digit#5,"{""value"":""slot#5"",""entered"":null,""rt"":39.275111099937931,""note"":""probe_digit#5""}",2,0.008333,120.000000,1
Sergio_G01_CNS-LLF5HT7Y0,cpeeg02,offmed_offstim,20260312_133400,2026-03-12 13:34:36.575560,1,5,probe,DIGIT5_OFF,150,2026-03-12 13:45:08.586777,631.967428,0.000000,,0,,,,keyboard,digit#5 off,"{""value"":0,""note"":""digit#5 off"",""pd_used"":0}",2,0.008333,120.000000,1
Sergio_G01_CNS-LLF5HT7Y0,cpeeg02,offmed_offstim,20260312_133400,2026-03-12 13:34:36.575560,1,5,probe,POSTDIG_FIX5_ON,155,2026-03-12 13:45:08.588947,631.967428,3.505917,,,,,,keyboard,after digit#5,"{""note"":""after digit#5""}",2,0.008333,120.000000,1
Sergio_G01_CNS-LLF5HT7Y0,cpeeg02,offmed_offstim,20260312_133400,2026-03-12 13:34:36.575560,1,5,probe,POSTDIG_FIX5_OFF,160,2026-03-12 13:45:12.091420,635.473345,0.054260,,,,,,keyboard,after digit#5,"{""note"":""after digit#5"",""pd_used"":0}",2,0.008333,120.000000,1
Sergio_G01_CNS-LLF5HT7Y0,cpeeg02,offmed_offstim,20260312_133400,2026-03-12 13:34:36.575560,1,5,probe,PROBE_DONE,73,2026-03-12 13:45:12.100792,635.527604,0.002321,,,,,,keyboard,probe complete,"{""value"":"""",""note"":""probe complete""}",2,0.008333,120.000000,1
Sergio_G01_CNS-LLF5HT7Y0,cpeeg02,offmed_offstim,20260312_133400,2026-03-12 13:34:36.575560,1,5,probe,TRIAL_END,21,2026-03-12 13:45:12.102855,635.529925,0.046003,,,,,,keyboard,,{},2,0.008333,120.000000,1
Sergio_G01_CNS-LLF5HT7Y0,cpeeg02,offmed_offstim,20260312_133400,2026-03-12 13:34:36.575560,1,6,probe,TRIAL_CHANGE,22,2026-03-12 13:45:12.148814,635.575928,0.001907,,,,,,keyboard,trial transition,"{""note"":""trial transition""}",2,0.008333,120.000000,1
Sergio_G01_CNS-LLF5HT7Y0,cpeeg02,offmed_offstim,20260312_133400,2026-03-12 13:34:36.575560,1,6,probe,TRIAL_START,20,2026-03-12 13:45:12.150574,635.577835,0.059636,,,,,,keyboard,,{},2,0.008333,120.000000,1
Sergio_G01_CNS-LLF5HT7Y0,cpeeg02,offmed_offstim,20260312_133400,2026-03-12 13:34:36.575560,1,6,fix1,FIX1_ON,30,2026-03-12 13:45:12.255280,635.637472,3.207313,,,,,,keyboard,,"{""pd_used"":0}",2,0.008333,120.000000,1
Sergio_G01_CNS-LLF5HT7Y0,cpeeg02,offmed_offstim,20260312_133400,2026-03-12 13:34:36.575560,1,6,fix1,FIX1_OFF,31,2026-03-12 13:45:15.462120,638.844784,0.056394,,,,,,keyboard,,"{""pd_used"":0}",2,0.008333,120.000000,1
Sergio_G01_CNS-LLF5HT7Y0,cpeeg02,offmed_offstim,20260312_133400,2026-03-12 13:34:36.575560,1,6,digit,DIGIT1_ON,141,2026-03-12 13:45:15.518473,638.901178,0.556356,,4,,,,keyboard,digit#1 shown,"{""value"":4,""note"":""digit#1 shown"",""pd_used"":1}",2,0.008333,120.000000,1
Sergio_G01_CNS-LLF5HT7Y0,cpeeg02,offmed_offstim,20260312_133400,2026-03-12 13:34:36.575560,1,6,digit,DIGIT1_OFF,146,2026-03-12 13:45:16.073836,639.457535,0.000000,,4,,,,keyboard,digit#1 off,"{""value"":4,""note"":""digit#1 off"",""pd_used"":0}",2,0.008333,120.000000,1
Sergio_G01_CNS-LLF5HT7Y0,cpeeg02,offmed_offstim,20260312_133400,2026-03-12 13:34:36.575560,1,6,digit,POSTDIG_FIX1_ON,151,2026-03-12 13:45:16.075789,639.457535,1.870802,,,,,,keyboard,after digit#1,"{""note"":""after digit#1""}",2,0.008333,120.000000,1
Sergio_G01_CNS-LLF5HT7Y0,cpeeg02,offmed_offstim,20260312_133400,2026-03-12 13:34:36.575560,1,6,digit,POSTDIG_FIX1_OFF,156,2026-03-12 13:45:17.945895,641.328337,0.056722,,,,,,keyboard,after digit#1,"{""note"":""after digit#1"",""pd_used"":0}",2,0.008333,120.000000,1
Sergio_G01_CNS-LLF5HT7Y0,cpeeg02,offmed_offstim,20260312_133400,2026-03-12 13:34:36.575560,1,6,digit,DIGIT2_ON,142,2026-03-12 13:45:18.001869,641.385058,0.555992,,6,,,,keyboard,digit#2 shown,"{""value"":6,""note"":""digit#2 shown"",""pd_used"":1}",2,0.008333,120.000000,1
Sergio_G01_CNS-LLF5HT7Y0,cpeeg02,offmed_offstim,20260312_133400,2026-03-12 13:34:36.575560,1,6,digit,DIGIT2_OFF,147,2026-03-12 13:45:18.558641,641.941050,0.000000,,6,,,,keyboard,digit#2 off,"{""value"":6,""note"":""digit#2 off"",""pd_used"":0}",2,0.008333,120.000000,1
Sergio_G01_CNS-LLF5HT7Y0,cpeeg02,offmed_offstim,20260312_133400,2026-03-12 13:34:36.575560,1,6,digit,POSTDIG_FIX2_ON,152,2026-03-12 13:45:18.560949,641.941050,1.703347,,,,,,keyboard,after digit#2,"{""note"":""after digit#2""}",2,0.008333,120.000000,1
Sergio_G01_CNS-LLF5HT7Y0,cpeeg02,offmed_offstim,20260312_133400,2026-03-12 13:34:36.575560,1,6,digit,POSTDIG_FIX2_OFF,157,2026-03-12 13:45:20.261678,643.644397,0.056528,,,,,,keyboard,after digit#2,"{""note"":""after digit#2"",""pd_used"":0}",2,0.008333,120.000000,1
Sergio_G01_CNS-LLF5HT7Y0,cpeeg02,offmed_offstim,20260312_133400,2026-03-12 13:34:36.575560,1,6,digit,DIGIT3_ON,143,2026-03-12 13:45:20.318469,643.700925,0.556609,,1,,,,keyboard,digit#3 shown,"{""value"":1,""note"":""digit#3 shown"",""pd_used"":1}",2,0.008333,120.000000,1
Sergio_G01_CNS-LLF5HT7Y0,cpeeg02,offmed_offstim,20260312_133400,2026-03-12 13:34:36.575560,1,6,digit,DIGIT3_OFF,148,2026-03-12 13:45:20.874667,644.257534,0.000000,,1,,,,keyboard,digit#3 off,"{""value"":1,""note"":""digit#3 off"",""pd_used"":0}",2,0.008333,120.000000,1
Sergio_G01_CNS-LLF5HT7Y0,cpeeg02,offmed_offstim,20260312_133400,2026-03-12 13:34:36.575560,1,6,digit,POSTDIG_FIX3_ON,153,2026-03-12 13:45:20.876788,644.257534,1.700488,,,,,,keyboard,after digit#3,"{""note"":""after digit#3""}",2,0.008333,120.000000,1
Sergio_G01_CNS-LLF5HT7Y0,cpeeg02,offmed_offstim,20260312_133400,2026-03-12 13:34:36.575560,1,6,digit,POSTDIG_FIX3_OFF,158,2026-03-12 13:45:22.575611,645.958022,0.057007,,,,,,keyboard,after digit#3,"{""note"":""after digit#3"",""pd_used"":0}",2,0.008333,120.000000,1
Sergio_G01_CNS-LLF5HT7Y0,cpeeg02,offmed_offstim,20260312_133400,2026-03-12 13:34:36.575560,1,6,digit,DIGIT4_ON,144,2026-03-12 13:45:22.632479,646.015029,0.556439,,8,,,,keyboard,digit#4 shown,"{""value"":8,""note"":""digit#4 shown"",""pd_used"":1}",2,0.008333,120.000000,1
Sergio_G01_CNS-LLF5HT7Y0,cpeeg02,offmed_offstim,20260312_133400,2026-03-12 13:34:36.575560,1,6,digit,DIGIT4_OFF,149,2026-03-12 13:45:23.188869,646.571468,0.000000,,8,,,,keyboard,digit#4 off,"{""value"":8,""note"":""digit#4 off"",""pd_used"":0}",2,0.008333,120.000000,1
Sergio_G01_CNS-LLF5HT7Y0,cpeeg02,offmed_offstim,20260312_133400,2026-03-12 13:34:36.575560,1,6,digit,POSTDIG_FIX4_ON,154,2026-03-12 13:45:23.190965,646.571468,1.578693,,,,,,keyboard,after digit#4,"{""note"":""after digit#4""}",2,0.008333,120.000000,1
Sergio_G01_CNS-LLF5HT7Y0,cpeeg02,offmed_offstim,20260312_133400,2026-03-12 13:34:36.575560,1,6,digit,POSTDIG_FIX4_OFF,159,2026-03-12 13:45:24.767445,648.150161,0.056541,,,,,,keyboard,after digit#4,"{""note"":""after digit#4"",""pd_used"":0}",2,0.008333,120.000000,1
Sergio_G01_CNS-LLF5HT7Y0,cpeeg02,offmed_offstim,20260312_133400,2026-03-12 13:34:36.575560,1,6,digit,DIGIT5_ON,145,2026-03-12 13:45:24.823697,648.206702,0.554931,,6,,,,keyboard,digit#5 shown,"{""value"":6,""note"":""digit#5 shown"",""pd_used"":1}",2,0.008333,120.000000,1
Sergio_G01_CNS-LLF5HT7Y0,cpeeg02,offmed_offstim,20260312_133400,2026-03-12 13:34:36.575560,1,6,digit,DIGIT5_OFF,150,2026-03-12 13:45:25.378891,648.761633,0.000000,,6,,,,keyboard,digit#5 off,"{""value"":6,""note"":""digit#5 off"",""pd_used"":0}",2,0.008333,120.000000,1
Sergio_G01_CNS-LLF5HT7Y0,cpeeg02,offmed_offstim,20260312_133400,2026-03-12 13:34:36.575560,1,6,digit,POSTDIG_FIX5_ON,155,2026-03-12 13:45:25.381182,648.761633,3.543020,,,,,,keyboard,after digit#5,"{""note"":""after digit#5""}",2,0.008333,120.000000,1
Sergio_G01_CNS-LLF5HT7Y0,cpeeg02,offmed_offstim,20260312_133400,2026-03-12 13:34:36.575560,1,6,digit,POSTDIG_FIX5_OFF,160,2026-03-12 13:45:28.922579,652.304652,0.056665,,,,,,keyboard,after digit#5,"{""note"":""after digit#5"",""pd_used"":0}",2,0.008333,120.000000,1
Sergio_G01_CNS-LLF5HT7Y0,cpeeg02,offmed_offstim,20260312_133400,2026-03-12 13:34:36.575560,1,6,distractor,DISTRACTOR_ON,50,2026-03-12 13:45:28.979020,652.361318,20.038424,,7+5=13,,,,keyboard,,"{""value"":""7+5=13"",""isCorrectTruth"":false,""trueSum"":12,""pd_used"":1}",2,0.008333,120.000000,1
Sergio_G01_CNS-LLF5HT7Y0,cpeeg02,offmed_offstim,20260312_133400,2026-03-12 13:34:36.575560,1,6,distractor,DISTRACTOR_OFF,52,2026-03-12 13:45:49.016196,672.399742,0.000000,,,,,,keyboard,,"{""pd_used"":0}",2,0.008333,120.000000,1
Sergio_G01_CNS-LLF5HT7Y0,cpeeg02,offmed_offstim,20260312_133400,2026-03-12 13:34:36.575560,1,6,distractor,FIX2_ON,60,2026-03-12 13:45:49.018005,672.399742,3.297644,,,,,,keyboard,deadline reached,"{""note"":""deadline reached""}",2,0.008333,120.000000,1
Sergio_G01_CNS-LLF5HT7Y0,cpeeg02,offmed_offstim,20260312_133400,2026-03-12 13:34:36.575560,1,6,fix2,FIX2_OFF,61,2026-03-12 13:45:52.314679,675.697386,0.055477,,,,,,keyboard,,"{""pd_used"":0}",2,0.008333,120.000000,1
Sergio_G01_CNS-LLF5HT7Y0,cpeeg02,offmed_offstim,20260312_133400,2026-03-12 13:34:36.575560,1,6,probe,DIGIT_RECALL_LINE_1,161,2026-03-12 13:45:52.369954,675.752863,13.988519,,1,,,,keyboard,first recall question,"{""value"":1,""note"":""first recall question"",""pd_used"":1}",2,0.008333,120.000000,1
Sergio_G01_CNS-LLF5HT7Y0,cpeeg02,offmed_offstim,20260312_133400,2026-03-12 13:34:36.575560,1,6,probe,PROBE_DIGIT_OK_1,71,2026-03-12 13:46:06.771814,689.741382,0.509785,13.997194,slot#1,NaN,,,keyboard,probe_digit#1,"{""value"":""slot#1"",""entered"":null,""rt"":13.997193699935451,""note"":""probe_digit#1""}",2,0.008333,120.000000,1
Sergio_G01_CNS-LLF5HT7Y0,cpeeg02,offmed_offstim,20260312_133400,2026-03-12 13:34:36.575560,1,6,probe,DIGIT1_OFF,146,2026-03-12 13:46:06.871185,690.251167,0.000000,,6,,,,keyboard,digit#1 off,"{""value"":6,""note"":""digit#1 off"",""pd_used"":0}",2,0.008333,120.000000,1
Sergio_G01_CNS-LLF5HT7Y0,cpeeg02,offmed_offstim,20260312_133400,2026-03-12 13:34:36.575560,1,6,probe,POSTDIG_FIX1_ON,151,2026-03-12 13:46:06.873402,690.251167,1.992016,,,,,,keyboard,after digit#1,"{""note"":""after digit#1""}",2,0.008333,120.000000,1
Sergio_G01_CNS-LLF5HT7Y0,cpeeg02,offmed_offstim,20260312_133400,2026-03-12 13:34:36.575560,1,6,probe,POSTDIG_FIX1_OFF,156,2026-03-12 13:46:08.860817,692.243182,0.063939,,,,,,keyboard,after digit#1,"{""note"":""after digit#1"",""pd_used"":0}",2,0.008333,120.000000,1
Sergio_G01_CNS-LLF5HT7Y0,cpeeg02,offmed_offstim,20260312_133400,2026-03-12 13:34:36.575560,1,6,probe,DIGIT_RECALL_LINE_2,162,2026-03-12 13:46:08.923471,692.307122,6.635225,,2,,,,keyboard,next recall question,"{""value"":2,""note"":""next recall question"",""pd_used"":1}",2,0.008333,120.000000,1
Sergio_G01_CNS-LLF5HT7Y0,cpeeg02,offmed_offstim,20260312_133400,2026-03-12 13:34:36.575560,1,6,probe,PROBE_DIGIT_OK_2,71,2026-03-12 13:46:15.909614,698.942346,0.446792,23.198158,slot#2,NaN,,,keyboard,probe_digit#2,"{""value"":""slot#2"",""entered"":null,""rt"":23.198158000013791,""note"":""probe_digit#2""}",2,0.008333,120.000000,1
Sergio_G01_CNS-LLF5HT7Y0,cpeeg02,offmed_offstim,20260312_133400,2026-03-12 13:34:36.575560,1,6,probe,DIGIT2_OFF,147,2026-03-12 13:46:16.007619,699.389139,0.000000,,6,,,,keyboard,digit#2 off,"{""value"":6,""note"":""digit#2 off"",""pd_used"":0}",2,0.008333,120.000000,1
Sergio_G01_CNS-LLF5HT7Y0,cpeeg02,offmed_offstim,20260312_133400,2026-03-12 13:34:36.575560,1,6,probe,POSTDIG_FIX2_ON,152,2026-03-12 13:46:16.009767,699.389139,1.960397,,,,,,keyboard,after digit#2,"{""note"":""after digit#2""}",2,0.008333,120.000000,1
Sergio_G01_CNS-LLF5HT7Y0,cpeeg02,offmed_offstim,20260312_133400,2026-03-12 13:34:36.575560,1,6,probe,POSTDIG_FIX2_OFF,157,2026-03-12 13:46:17.966598,701.349535,0.062282,,,,,,keyboard,after digit#2,"{""note"":""after digit#2"",""pd_used"":0}",2,0.008333,120.000000,1
Sergio_G01_CNS-LLF5HT7Y0,cpeeg02,offmed_offstim,20260312_133400,2026-03-12 13:34:36.575560,1,6,probe,DIGIT_RECALL_LINE_3,163,2026-03-12 13:46:18.028737,701.411817,5.581683,,3,,,,keyboard,next recall question,"{""value"":3,""note"":""next recall question"",""pd_used"":1}",2,0.008333,120.000000,1
Sergio_G01_CNS-LLF5HT7Y0,cpeeg02,offmed_offstim,20260312_133400,2026-03-12 13:34:36.575560,1,6,probe,PROBE_DIGIT_OK_3,71,2026-03-12 13:46:23.977975,706.993500,0.464804,31.249312,slot#3,NaN,,,keyboard,probe_digit#3,"{""value"":""slot#3"",""entered"":null,""rt"":31.249311699997634,""note"":""probe_digit#3""}",2,0.008333,120.000000,1
Sergio_G01_CNS-LLF5HT7Y0,cpeeg02,offmed_offstim,20260312_133400,2026-03-12 13:34:36.575560,1,6,probe,DIGIT3_OFF,148,2026-03-12 13:46:24.077376,707.458304,0.000000,,6,,,,keyboard,digit#3 off,"{""value"":6,""note"":""digit#3 off"",""pd_used"":0}",2,0.008333,120.000000,1
Sergio_G01_CNS-LLF5HT7Y0,cpeeg02,offmed_offstim,20260312_133400,2026-03-12 13:34:36.575560,1,6,probe,POSTDIG_FIX3_ON,153,2026-03-12 13:46:24.079722,707.458304,1.994797,,,,,,keyboard,after digit#3,"{""note"":""after digit#3""}",2,0.008333,120.000000,1
Sergio_G01_CNS-LLF5HT7Y0,cpeeg02,offmed_offstim,20260312_133400,2026-03-12 13:34:36.575560,1,6,probe,POSTDIG_FIX3_OFF,158,2026-03-12 13:46:26.070730,709.453101,0.063305,,,,,,keyboard,after digit#3,"{""note"":""after digit#3"",""pd_used"":0}",2,0.008333,120.000000,1
Sergio_G01_CNS-LLF5HT7Y0,cpeeg02,offmed_offstim,20260312_133400,2026-03-12 13:34:36.575560,1,6,probe,DIGIT_RECALL_LINE_4,164,2026-03-12 13:46:26.133818,709.516407,3.764373,,4,,,,keyboard,next recall question,"{""value"":4,""note"":""next recall question"",""pd_used"":1}",2,0.008333,120.000000,1
Sergio_G01_CNS-LLF5HT7Y0,cpeeg02,offmed_offstim,20260312_133400,2026-03-12 13:34:36.575560,1,6,probe,PROBE_DIGIT_OK_4,71,2026-03-12 13:46:30.327215,713.280780,0.526826,37.536591,slot#4,NaN,,,keyboard,probe_digit#4,"{""value"":""slot#4"",""entered"":null,""rt"":37.536591299925931,""note"":""probe_digit#4""}",2,0.008333,120.000000,1
Sergio_G01_CNS-LLF5HT7Y0,cpeeg02,offmed_offstim,20260312_133400,2026-03-12 13:34:36.575560,1,6,probe,DIGIT4_OFF,149,2026-03-12 13:46:30.427313,713.807605,0.000000,,6,,,,keyboard,digit#4 off,"{""value"":6,""note"":""digit#4 off"",""pd_used"":0}",2,0.008333,120.000000,1
Sergio_G01_CNS-LLF5HT7Y0,cpeeg02,offmed_offstim,20260312_133400,2026-03-12 13:34:36.575560,1,6,probe,POSTDIG_FIX4_ON,154,2026-03-12 13:46:30.429524,713.807605,1.767084,,,,,,keyboard,after digit#4,"{""note"":""after digit#4""}",2,0.008333,120.000000,1
Sergio_G01_CNS-LLF5HT7Y0,cpeeg02,offmed_offstim,20260312_133400,2026-03-12 13:34:36.575560,1,6,probe,POSTDIG_FIX4_OFF,159,2026-03-12 13:46:32.192196,715.574689,0.065265,,,,,,keyboard,after digit#4,"{""note"":""after digit#4"",""pd_used"":0}",2,0.008333,120.000000,1
Sergio_G01_CNS-LLF5HT7Y0,cpeeg02,offmed_offstim,20260312_133400,2026-03-12 13:34:36.575560,1,6,probe,DIGIT_RECALL_LINE_5,165,2026-03-12 13:46:32.256762,715.639954,4.852155,,5,,,,keyboard,next recall question,"{""value"":5,""note"":""next recall question"",""pd_used"":1}",2,0.008333,120.000000,1
Sergio_G01_CNS-LLF5HT7Y0,cpeeg02,offmed_offstim,20260312_133400,2026-03-12 13:34:36.575560,1,6,probe,PROBE_DIGIT_OK_5,71,2026-03-12 13:46:37.418152,720.492110,0.406115,44.747921,slot#5,NaN,,,keyboard,probe_digit#5,"{""value"":""slot#5"",""entered"":null,""rt"":44.747921400005,""note"":""probe_digit#5""}",2,0.008333,120.000000,1
Sergio_G01_CNS-LLF5HT7Y0,cpeeg02,offmed_offstim,20260312_133400,2026-03-12 13:34:36.575560,1,6,probe,DIGIT5_OFF,150,2026-03-12 13:46:37.517543,720.898224,0.000000,,6,,,,keyboard,digit#5 off,"{""value"":6,""note"":""digit#5 off"",""pd_used"":0}",2,0.008333,120.000000,1
Sergio_G01_CNS-LLF5HT7Y0,cpeeg02,offmed_offstim,20260312_133400,2026-03-12 13:34:36.575560,1,6,probe,POSTDIG_FIX5_ON,155,2026-03-12 13:46:37.520521,720.898224,3.502832,,,,,,keyboard,after digit#5,"{""note"":""after digit#5""}",2,0.008333,120.000000,1
Sergio_G01_CNS-LLF5HT7Y0,cpeeg02,offmed_offstim,20260312_133400,2026-03-12 13:34:36.575560,1,6,probe,POSTDIG_FIX5_OFF,160,2026-03-12 13:46:41.018214,724.401057,0.053990,,,,,,keyboard,after digit#5,"{""note"":""after digit#5"",""pd_used"":0}",2,0.008333,120.000000,1
Sergio_G01_CNS-LLF5HT7Y0,cpeeg02,offmed_offstim,20260312_133400,2026-03-12 13:34:36.575560,1,6,probe,PROBE_DONE,73,2026-03-12 13:46:41.027771,724.455046,0.001687,,,,,,keyboard,probe complete,"{""value"":"""",""note"":""probe complete""}",2,0.008333,120.000000,1
Sergio_G01_CNS-LLF5HT7Y0,cpeeg02,offmed_offstim,20260312_133400,2026-03-12 13:34:36.575560,1,6,probe,TRIAL_END,21,2026-03-12 13:46:41.029339,724.456734,0.045050,,,,,,keyboard,,{},2,0.008333,120.000000,1
Sergio_G01_CNS-LLF5HT7Y0,cpeeg02,offmed_offstim,20260312_133400,2026-03-12 13:34:36.575560,1,7,probe,TRIAL_CHANGE,22,2026-03-12 13:46:41.075078,724.501783,0.002608,,,,,,keyboard,trial transition,"{""note"":""trial transition""}",2,0.008333,120.000000,1
Sergio_G01_CNS-LLF5HT7Y0,cpeeg02,offmed_offstim,20260312_133400,2026-03-12 13:34:36.575560,1,7,probe,TRIAL_START,20,2026-03-12 13:46:41.077281,724.504391,0.059980,,,,,,keyboard,,{},2,0.008333,120.000000,1
Sergio_G01_CNS-LLF5HT7Y0,cpeeg02,offmed_offstim,20260312_133400,2026-03-12 13:34:36.575560,1,7,fix1,FIX1_ON,30,2026-03-12 13:46:41.181472,724.564371,3.121607,,,,,,keyboard,,"{""pd_used"":0}",2,0.008333,120.000000,1
Sergio_G01_CNS-LLF5HT7Y0,cpeeg02,offmed_offstim,20260312_133400,2026-03-12 13:34:36.575560,1,7,fix1,FIX1_OFF,31,2026-03-12 13:46:44.303557,727.685978,0.056816,,,,,,keyboard,,"{""pd_used"":0}",2,0.008333,120.000000,1
Sergio_G01_CNS-LLF5HT7Y0,cpeeg02,offmed_offstim,20260312_133400,2026-03-12 13:34:36.575560,1,7,digit,DIGIT1_ON,141,2026-03-12 13:46:44.359443,727.742794,0.556122,,8,,,,keyboard,digit#1 shown,"{""value"":8,""note"":""digit#1 shown"",""pd_used"":1}",2,0.008333,120.000000,1
Sergio_G01_CNS-LLF5HT7Y0,cpeeg02,offmed_offstim,20260312_133400,2026-03-12 13:34:36.575560,1,7,digit,DIGIT1_OFF,146,2026-03-12 13:46:44.915284,728.298916,0.000000,,8,,,,keyboard,digit#1 off,"{""value"":8,""note"":""digit#1 off"",""pd_used"":0}",2,0.008333,120.000000,1
Sergio_G01_CNS-LLF5HT7Y0,cpeeg02,offmed_offstim,20260312_133400,2026-03-12 13:34:36.575560,1,7,digit,POSTDIG_FIX1_ON,151,2026-03-12 13:46:44.917618,728.298916,1.882942,,,,,,keyboard,after digit#1,"{""note"":""after digit#1""}",2,0.008333,120.000000,1
Sergio_G01_CNS-LLF5HT7Y0,cpeeg02,offmed_offstim,20260312_133400,2026-03-12 13:34:36.575560,1,7,digit,POSTDIG_FIX1_OFF,156,2026-03-12 13:46:46.798553,730.181858,0.056210,,,,,,keyboard,after digit#1,"{""note"":""after digit#1"",""pd_used"":0}",2,0.008333,120.000000,1
Sergio_G01_CNS-LLF5HT7Y0,cpeeg02,offmed_offstim,20260312_133400,2026-03-12 13:34:36.575560,1,7,digit,DIGIT2_ON,142,2026-03-12 13:46:46.855410,730.238068,0.555731,,4,,,,keyboard,digit#2 shown,"{""value"":4,""note"":""digit#2 shown"",""pd_used"":1}",2,0.008333,120.000000,1
Sergio_G01_CNS-LLF5HT7Y0,cpeeg02,offmed_offstim,20260312_133400,2026-03-12 13:34:36.575560,1,7,digit,DIGIT2_OFF,147,2026-03-12 13:46:47.411739,730.793799,0.000000,,4,,,,keyboard,digit#2 off,"{""value"":4,""note"":""digit#2 off"",""pd_used"":0}",2,0.008333,120.000000,1
Sergio_G01_CNS-LLF5HT7Y0,cpeeg02,offmed_offstim,20260312_133400,2026-03-12 13:34:36.575560,1,7,digit,POSTDIG_FIX2_ON,152,2026-03-12 13:46:47.414310,730.793799,1.920597,,,,,,keyboard,after digit#2,"{""note"":""after digit#2""}",2,0.008333,120.000000,1
Sergio_G01_CNS-LLF5HT7Y0,cpeeg02,offmed_offstim,20260312_133400,2026-03-12 13:34:36.575560,1,7,digit,POSTDIG_FIX2_OFF,157,2026-03-12 13:46:49.331179,732.714396,0.055743,,,,,,keyboard,after digit#2,"{""note"":""after digit#2"",""pd_used"":0}",2,0.008333,120.000000,1
Sergio_G01_CNS-LLF5HT7Y0,cpeeg02,offmed_offstim,20260312_133400,2026-03-12 13:34:36.575560,1,7,digit,DIGIT3_ON,143,2026-03-12 13:46:49.386057,732.770139,0.554909,,2,,,,keyboard,digit#3 shown,"{""value"":2,""note"":""digit#3 shown"",""pd_used"":1}",2,0.008333,120.000000,1
Sergio_G01_CNS-LLF5HT7Y0,cpeeg02,offmed_offstim,20260312_133400,2026-03-12 13:34:36.575560,1,7,digit,DIGIT3_OFF,148,2026-03-12 13:46:49.942104,733.325048,0.000000,,2,,,,keyboard,digit#3 off,"{""value"":2,""note"":""digit#3 off"",""pd_used"":0}",2,0.008333,120.000000,1
Sergio_G01_CNS-LLF5HT7Y0,cpeeg02,offmed_offstim,20260312_133400,2026-03-12 13:34:36.575560,1,7,digit,POSTDIG_FIX3_ON,153,2026-03-12 13:46:49.944508,733.325048,1.785888,,,,,,keyboard,after digit#3,"{""note"":""after digit#3""}",2,0.008333,120.000000,1
Sergio_G01_CNS-LLF5HT7Y0,cpeeg02,offmed_offstim,20260312_133400,2026-03-12 13:34:36.575560,1,7,digit,POSTDIG_FIX3_OFF,158,2026-03-12 13:46:51.728273,735.110936,0.056911,,,,,,keyboard,after digit#3,"{""note"":""after digit#3"",""pd_used"":0}",2,0.008333,120.000000,1
Sergio_G01_CNS-LLF5HT7Y0,cpeeg02,offmed_offstim,20260312_133400,2026-03-12 13:34:36.575560,1,7,digit,DIGIT4_ON,144,2026-03-12 13:46:51.784707,735.167847,0.555769,,1,,,,keyboard,digit#4 shown,"{""value"":1,""note"":""digit#4 shown"",""pd_used"":1}",2,0.008333,120.000000,1
Sergio_G01_CNS-LLF5HT7Y0,cpeeg02,offmed_offstim,20260312_133400,2026-03-12 13:34:36.575560,1,7,digit,DIGIT4_OFF,149,2026-03-12 13:46:52.341001,735.723616,0.000000,,1,,,,keyboard,digit#4 off,"{""value"":1,""note"":""digit#4 off"",""pd_used"":0}",2,0.008333,120.000000,1
Sergio_G01_CNS-LLF5HT7Y0,cpeeg02,offmed_offstim,20260312_133400,2026-03-12 13:34:36.575560,1,7,digit,POSTDIG_FIX4_ON,154,2026-03-12 13:46:52.343681,735.723616,1.886853,,,,,,keyboard,after digit#4,"{""note"":""after digit#4""}",2,0.008333,120.000000,1
Sergio_G01_CNS-LLF5HT7Y0,cpeeg02,offmed_offstim,20260312_133400,2026-03-12 13:34:36.575560,1,7,digit,POSTDIG_FIX4_OFF,159,2026-03-12 13:46:54.227729,737.610469,0.056947,,,,,,keyboard,after digit#4,"{""note"":""after digit#4"",""pd_used"":0}",2,0.008333,120.000000,1
Sergio_G01_CNS-LLF5HT7Y0,cpeeg02,offmed_offstim,20260312_133400,2026-03-12 13:34:36.575560,1,7,digit,DIGIT5_ON,145,2026-03-12 13:46:54.284362,737.667417,0.556628,,7,,,,keyboard,digit#5 shown,"{""value"":7,""note"":""digit#5 shown"",""pd_used"":1}",2,0.008333,120.000000,1
Sergio_G01_CNS-LLF5HT7Y0,cpeeg02,offmed_offstim,20260312_133400,2026-03-12 13:34:36.575560,1,7,digit,DIGIT5_OFF,150,2026-03-12 13:46:54.841918,738.224044,0.000000,,7,,,,keyboard,digit#5 off,"{""value"":7,""note"":""digit#5 off"",""pd_used"":0}",2,0.008333,120.000000,1
Sergio_G01_CNS-LLF5HT7Y0,cpeeg02,offmed_offstim,20260312_133400,2026-03-12 13:34:36.575560,1,7,digit,POSTDIG_FIX5_ON,155,2026-03-12 13:46:54.844391,738.224044,3.186581,,,,,,keyboard,after digit#5,"{""note"":""after digit#5""}",2,0.008333,120.000000,1
Sergio_G01_CNS-LLF5HT7Y0,cpeeg02,offmed_offstim,20260312_133400,2026-03-12 13:34:36.575560,1,7,digit,POSTDIG_FIX5_OFF,160,2026-03-12 13:46:58.027877,741.410625,0.057415,,,,,,keyboard,after digit#5,"{""note"":""after digit#5"",""pd_used"":0}",2,0.008333,120.000000,1
Sergio_G01_CNS-LLF5HT7Y0,cpeeg02,offmed_offstim,20260312_133400,2026-03-12 13:34:36.575560,1,7,distractor,DISTRACTOR_ON,50,2026-03-12 13:46:58.084315,741.468040,13.510676,,6+1=7,,,,keyboard,,"{""value"":""6+1=7"",""isCorrectTruth"":true,""trueSum"":7,""pd_used"":1}",2,0.008333,120.000000,1
Sergio_G01_CNS-LLF5HT7Y0,cpeeg02,offmed_offstim,20260312_133400,2026-03-12 13:34:36.575560,1,7,distractor,DISTRACTOR_ANS,51,2026-03-12 13:47:11.970866,754.978716,0.000000,13.510676,6+1=7,F,0,,keyboard,key= (False),"{""value"":""6+1=7"",""entered"":""F"",""rt"":13.510675700032152,""correct"":0,""note"":""key= (False)"",""truth"":true,""trueSum"":7,""shownSum"":7,""a"":6,""b"":1}",2,0.008333,120.000000,1
Sergio_G01_CNS-LLF5HT7Y0,cpeeg02,offmed_offstim,20260312_133400,2026-03-12 13:34:36.575560,1,7,distractor,ANS_WRONG,200,2026-03-12 13:47:12.018041,754.978716,0.476146,,,,,,keyboard,,{},2,0.008333,120.000000,1
