file_version,subject,condition,session,task_start_time,block,trial,phase,event_name,event_code,wall_clock,t_rel_sec,duration_to_next,rt,value_shown,entered_value,correct,key_name,device,note,json,screen_index,ifi,refresh_hz,pd_used
Sergio_G01_CNS-LLF5HT7Y0,T01,OFFmed_OFFstim,20260304_202533,2026-03-04 20:25:46.118864,NaN,NaN,,MIC_NOISEFLOOR,6,2026-03-04 20:25:49.384546,3.255973,4.256662,,,,,,keyboard,,{},1,NaN,NaN,1
Sergio_G01_CNS-LLF5HT7Y0,T01,OFFmed_OFFstim,20260304_202533,2026-03-04 20:25:46.118864,NaN,NaN,,MIC_REC_SPEECH,7,2026-03-04 20:25:53.631699,7.512635,6.620017,,,,,,keyboard,,{},1,NaN,NaN,1
Sergio_G01_CNS-LLF5HT7Y0,T01,OFFmed_OFFstim,20260304_202533,2026-03-04 20:25:46.118864,NaN,NaN,,SESSION_START,1,2026-03-04 20:26:19.713388,33.594204,0.002240,,,,,,keyboard,,{},1,0.008334,119.991927,1
Sergio_G01_CNS-LLF5HT7Y0,T01,OFFmed_OFFstim,20260304_202533,2026-03-04 20:25:46.118864,1,NaN,,BLOCK_START,10,2026-03-04 20:26:19.715304,33.596444,0.015529,,,,,,keyboard,,{},1,0.008334,119.991927,1
Sergio_G01_CNS-LLF5HT7Y0,T01,OFFmed_OFFstim,20260304_202533,2026-03-04 20:25:46.118864,1,0,reading,START_PAGE_ON,4,2026-03-04 20:26:19.732535,33.611972,0.019980,,,,,,keyboard,,"{""pd_used"":0}",1,0.008334,119.991927,1
Sergio_G01_CNS-LLF5HT7Y0,T01,OFFmed_OFFstim,20260304_202533,2026-03-04 20:25:46.118864,1,0,reading,START_PAGE_ON,4,2026-03-04 20:26:19.732535,33.611972,2.340311,,,,,,keyboard,,"{""pd_used"":0}",1,0.008334,119.991927,1
Sergio_G01_CNS-LLF5HT7Y0,T01,OFFmed_OFFstim,20260304_202533,2026-03-04 20:25:46.118864,1,0,reading,START_PAGE_ON,4,2026-03-04 20:26:19.732535,33.611972,2.651835,,,,,,keyboard,,"{""pd_used"":0}",1,0.008334,119.991927,1
Sergio_G01_CNS-LLF5HT7Y0,T01,OFFmed_OFFstim,20260304_202533,2026-03-04 20:25:46.118864,1,0,reading,READING_START,23,2026-03-04 20:26:22.382857,36.263808,0.027630,,,,,,keyboard,,{},1,0.008334,119.991927,1
Sergio_G01_CNS-LLF5HT7Y0,T01,OFFmed_OFFstim,20260304_202533,2026-03-04 20:25:46.118864,1,0,reading,DIGIT_READ1_ON,101,2026-03-04 20:26:22.410706,36.291438,1.560199,,1,,,,keyboard,digit#1 shown,"{""value"":1,""note"":""digit#1 shown"",""pd_used"":1}",1,0.008334,119.991927,1
Sergio_G01_CNS-LLF5HT7Y0,T01,OFFmed_OFFstim,20260304_202533,2026-03-04 20:25:46.118864,1,0,reading,PROBE_COUNT_OK_1,71,2026-03-04 20:26:24.332513,37.851637,0.375635,4.252620,slot#1,NaN,,,keyboard,probe_digit#1,"{""value"":""slot#1"",""entered"":null,""rt"":4.2526198999257758,""note"":""probe_digit#1""}",1,0.008334,119.991927,1
Sergio_G01_CNS-LLF5HT7Y0,T01,OFFmed_OFFstim,20260304_202533,2026-03-04 20:25:46.118864,1,0,reading,DIGIT_READ1_OFF,116,2026-03-04 20:26:24.345768,38.227272,0.000000,,1,,,,keyboard,digit#1 off,"{""value"":1,""note"":""digit#1 off"",""pd_used"":0}",1,0.008334,119.991927,1
Sergio_G01_CNS-LLF5HT7Y0,T01,OFFmed_OFFstim,20260304_202533,2026-03-04 20:25:46.118864,1,0,reading,POSTREAD_FIX1_ON,201,2026-03-04 20:26:24.347780,38.227272,1.782266,,,,,,keyboard,after digit#1,"{""note"":""after digit#1""}",1,0.008334,119.991927,1
Sergio_G01_CNS-LLF5HT7Y0,T01,OFFmed_OFFstim,20260304_202533,2026-03-04 20:25:46.118864,1,0,reading,POSTREAD_FIX1_OFF,216,2026-03-04 20:26:26.128771,40.009538,0.018630,,,,,,keyboard,after digit#1,"{""note"":""after digit#1"",""pd_used"":0}",1,0.008334,119.991927,1
Sergio_G01_CNS-LLF5HT7Y0,T01,OFFmed_OFFstim,20260304_202533,2026-03-04 20:25:46.118864,1,0,reading,DIGIT_READ2_ON,102,2026-03-04 20:26:26.147384,40.028168,5.018263,,2,,,,keyboard,digit#2 shown,"{""value"":2,""note"":""digit#2 shown"",""pd_used"":1}",1,0.008334,119.991927,1
Sergio_G01_CNS-LLF5HT7Y0,T01,OFFmed_OFFstim,20260304_202533,2026-03-04 20:25:46.118864,1,0,reading,PROBE_COUNT_OK_2,71,2026-03-04 20:26:31.595412,45.046431,0.440003,11.447414,slot#2,NaN,,,keyboard,probe_digit#2,"{""value"":""slot#2"",""entered"":null,""rt"":11.447413599933498,""note"":""probe_digit#2""}",1,0.008334,119.991927,1
Sergio_G01_CNS-LLF5HT7Y0,T01,OFFmed_OFFstim,20260304_202533,2026-03-04 20:25:46.118864,1,0,reading,DIGIT_READ2_OFF,117,2026-03-04 20:26:31.605622,45.486434,0.000000,,2,,,,keyboard,digit#2 off,"{""value"":2,""note"":""digit#2 off"",""pd_used"":0}",1,0.008334,119.991927,1
Sergio_G01_CNS-LLF5HT7Y0,T01,OFFmed_OFFstim,20260304_202533,2026-03-04 20:25:46.118864,1,0,reading,POSTREAD_FIX2_ON,202,2026-03-04 20:26:31.607833,45.486434,1.976621,,,,,,keyboard,after digit#2,"{""note"":""after digit#2""}",1,0.008334,119.991927,1
Sergio_G01_CNS-LLF5HT7Y0,T01,OFFmed_OFFstim,20260304_202533,2026-03-04 20:25:46.118864,1,0,reading,POSTREAD_FIX2_OFF,217,2026-03-04 20:26:33.582581,47.463055,0.019014,,,,,,keyboard,after digit#2,"{""note"":""after digit#2"",""pd_used"":0}",1,0.008334,119.991927,1
Sergio_G01_CNS-LLF5HT7Y0,T01,OFFmed_OFFstim,20260304_202533,2026-03-04 20:25:46.118864,1,0,reading,DIGIT_READ3_ON,103,2026-03-04 20:26:33.601194,47.482068,0.732077,,6,,,,keyboard,digit#3 shown,"{""value"":6,""note"":""digit#3 shown"",""pd_used"":1}",1,0.008334,119.991927,1
Sergio_G01_CNS-LLF5HT7Y0,T01,OFFmed_OFFstim,20260304_202533,2026-03-04 20:25:46.118864,1,0,reading,PROBE_COUNT_OK_3,71,2026-03-04 20:26:34.660218,48.214145,0.335935,14.615128,slot#3,NaN,,,keyboard,probe_digit#3,"{""value"":""slot#3"",""entered"":null,""rt"":14.615128200035542,""note"":""probe_digit#3""}",1,0.008334,119.991927,1
Sergio_G01_CNS-LLF5HT7Y0,T01,OFFmed_OFFstim,20260304_202533,2026-03-04 20:25:46.118864,1,0,reading,DIGIT_READ3_OFF,118,2026-03-04 20:26:34.669111,48.550080,0.000000,,6,,,,keyboard,digit#3 off,"{""value"":6,""note"":""digit#3 off"",""pd_used"":0}",1,0.008334,119.991927,1
Sergio_G01_CNS-LLF5HT7Y0,T01,OFFmed_OFFstim,20260304_202533,2026-03-04 20:25:46.118864,1,0,reading,POSTREAD_FIX3_ON,203,2026-03-04 20:26:34.670756,48.550080,1.944202,,,,,,keyboard,after digit#3,"{""note"":""after digit#3""}",1,0.008334,119.991927,1
Sergio_G01_CNS-LLF5HT7Y0,T01,OFFmed_OFFstim,20260304_202533,2026-03-04 20:25:46.118864,1,0,reading,POSTREAD_FIX3_OFF,218,2026-03-04 20:26:36.613016,50.494282,0.020687,,,,,,keyboard,after digit#3,"{""note"":""after digit#3"",""pd_used"":0}",1,0.008334,119.991927,1
Sergio_G01_CNS-LLF5HT7Y0,T01,OFFmed_OFFstim,20260304_202533,2026-03-04 20:25:46.118864,1,0,reading,DIGIT_READ4_ON,104,2026-03-04 20:26:36.633597,50.514969,2.398361,,1,,,,keyboard,digit#4 shown,"{""value"":1,""note"":""digit#4 shown"",""pd_used"":1}",1,0.008334,119.991927,1
Sergio_G01_CNS-LLF5HT7Y0,T01,OFFmed_OFFstim,20260304_202533,2026-03-04 20:25:46.118864,1,0,reading,PROBE_COUNT_OK_4,71,2026-03-04 20:26:39.421341,52.913330,0.398945,19.314312,slot#4,NaN,,,keyboard,probe_digit#4,"{""value"":""slot#4"",""entered"":null,""rt"":19.314312499947846,""note"":""probe_digit#4""}",1,0.008334,119.991927,1
Sergio_G01_CNS-LLF5HT7Y0,T01,OFFmed_OFFstim,20260304_202533,2026-03-04 20:25:46.118864,1,0,reading,DIGIT_READ4_OFF,119,2026-03-04 20:26:39.431363,53.312274,0.000000,,1,,,,keyboard,digit#4 off,"{""value"":1,""note"":""digit#4 off"",""pd_used"":0}",1,0.008334,119.991927,1
Sergio_G01_CNS-LLF5HT7Y0,T01,OFFmed_OFFstim,20260304_202533,2026-03-04 20:25:46.118864,1,0,reading,POSTREAD_FIX4_ON,204,2026-03-04 20:26:39.433292,53.312274,1.804895,,,,,,keyboard,after digit#4,"{""note"":""after digit#4""}",1,0.008334,119.991927,1
Sergio_G01_CNS-LLF5HT7Y0,T01,OFFmed_OFFstim,20260304_202533,2026-03-04 20:25:46.118864,1,0,reading,POSTREAD_FIX4_OFF,219,2026-03-04 20:26:41.236098,55.117170,0.022385,,,,,,keyboard,after digit#4,"{""note"":""after digit#4"",""pd_used"":0}",1,0.008334,119.991927,1
Sergio_G01_CNS-LLF5HT7Y0,T01,OFFmed_OFFstim,20260304_202533,2026-03-04 20:25:46.118864,1,0,reading,DIGIT_READ5_ON,105,2026-03-04 20:26:41.258510,55.139555,3.470025,,2,,,,keyboard,digit#5 shown,"{""value"":2,""note"":""digit#5 shown"",""pd_used"":1}",1,0.008334,119.991927,1
Sergio_G01_CNS-LLF5HT7Y0,T01,OFFmed_OFFstim,20260304_202533,2026-03-04 20:25:46.118864,1,0,reading,PROBE_COUNT_OK_5,71,2026-03-04 20:26:45.189542,58.609580,0.470096,25.010563,slot#5,NaN,,,keyboard,probe_digit#5,"{""value"":""slot#5"",""entered"":null,""rt"":25.010562999988906,""note"":""probe_digit#5""}",1,0.008334,119.991927,1
Sergio_G01_CNS-LLF5HT7Y0,T01,OFFmed_OFFstim,20260304_202533,2026-03-04 20:25:46.118864,1,0,reading,DIGIT_READ5_OFF,120,2026-03-04 20:26:45.198810,59.079676,0.000000,,2,,,,keyboard,digit#5 off,"{""value"":2,""note"":""digit#5 off"",""pd_used"":0}",1,0.008334,119.991927,1
Sergio_G01_CNS-LLF5HT7Y0,T01,OFFmed_OFFstim,20260304_202533,2026-03-04 20:25:46.118864,1,0,reading,POSTREAD_FIX5_ON,205,2026-03-04 20:26:45.200564,59.079676,1.931794,,,,,,keyboard,after digit#5,"{""note"":""after digit#5""}",1,0.008334,119.991927,1
Sergio_G01_CNS-LLF5HT7Y0,T01,OFFmed_OFFstim,20260304_202533,2026-03-04 20:25:46.118864,1,0,reading,POSTREAD_FIX5_OFF,220,2026-03-04 20:26:47.130851,61.011471,0.019796,,,,,,keyboard,after digit#5,"{""note"":""after digit#5"",""pd_used"":0}",1,0.008334,119.991927,1
Sergio_G01_CNS-LLF5HT7Y0,T01,OFFmed_OFFstim,20260304_202533,2026-03-04 20:25:46.118864,1,0,reading,DIGIT_READ6_ON,106,2026-03-04 20:26:47.150384,61.031267,0.694175,,3,,,,keyboard,digit#6 shown,"{""value"":3,""note"":""digit#6 shown"",""pd_used"":1}",1,0.008334,119.991927,1
Sergio_G01_CNS-LLF5HT7Y0,T01,OFFmed_OFFstim,20260304_202533,2026-03-04 20:25:46.118864,1,0,reading,PROBE_COUNT_OK_6,71,2026-03-04 20:26:48.189715,61.725442,0.354220,28.126425,slot#6,NaN,,,keyboard,probe_digit#6,"{""value"":""slot#6"",""entered"":null,""rt"":28.126424900023267,""note"":""probe_digit#6""}",1,0.008334,119.991927,1
Sergio_G01_CNS-LLF5HT7Y0,T01,OFFmed_OFFstim,20260304_202533,2026-03-04 20:25:46.118864,1,0,reading,DIGIT_READ6_OFF,121,2026-03-04 20:26:48.199013,62.079662,0.000000,,3,,,,keyboard,digit#6 off,"{""value"":3,""note"":""digit#6 off"",""pd_used"":0}",1,0.008334,119.991927,1
Sergio_G01_CNS-LLF5HT7Y0,T01,OFFmed_OFFstim,20260304_202533,2026-03-04 20:25:46.118864,1,0,reading,POSTREAD_FIX6_ON,206,2026-03-04 20:26:48.200006,62.079662,1.674727,,,,,,keyboard,after digit#6,"{""note"":""after digit#6""}",1,0.008334,119.991927,1
Sergio_G01_CNS-LLF5HT7Y0,T01,OFFmed_OFFstim,20260304_202533,2026-03-04 20:25:46.118864,1,0,reading,POSTREAD_FIX6_OFF,221,2026-03-04 20:26:49.873119,63.754389,0.018292,,,,,,keyboard,after digit#6,"{""note"":""after digit#6"",""pd_used"":0}",1,0.008334,119.991927,1
Sergio_G01_CNS-LLF5HT7Y0,T01,OFFmed_OFFstim,20260304_202533,2026-03-04 20:25:46.118864,1,0,reading,DIGIT_READ7_ON,107,2026-03-04 20:26:49.891851,63.772680,0.659473,,7,,,,keyboard,digit#7 shown,"{""value"":7,""note"":""digit#7 shown"",""pd_used"":1}",1,0.008334,119.991927,1
Sergio_G01_CNS-LLF5HT7Y0,T01,OFFmed_OFFstim,20260304_202533,2026-03-04 20:25:46.118864,1,0,reading,PROBE_COUNT_OK_7,71,2026-03-04 20:26:51.051770,64.432154,0.510148,30.833137,slot#7,NaN,,,keyboard,probe_digit#7,"{""value"":""slot#7"",""entered"":null,""rt"":30.833136799978092,""note"":""probe_digit#7""}",1,0.008334,119.991927,1
Sergio_G01_CNS-LLF5HT7Y0,T01,OFFmed_OFFstim,20260304_202533,2026-03-04 20:25:46.118864,1,0,reading,DIGIT_READ7_OFF,122,2026-03-04 20:26:51.061318,64.942302,0.000000,,7,,,,keyboard,digit#7 off,"{""value"":7,""note"":""digit#7 off"",""pd_used"":0}",1,0.008334,119.991927,1
Sergio_G01_CNS-LLF5HT7Y0,T01,OFFmed_OFFstim,20260304_202533,2026-03-04 20:25:46.118864,1,0,reading,POSTREAD_FIX7_ON,207,2026-03-04 20:26:51.063098,64.942302,1.836779,,,,,,keyboard,after digit#7,"{""note"":""after digit#7""}",1,0.008334,119.991927,1
Sergio_G01_CNS-LLF5HT7Y0,T01,OFFmed_OFFstim,20260304_202533,2026-03-04 20:25:46.118864,1,0,reading,POSTREAD_FIX7_OFF,222,2026-03-04 20:26:52.898569,66.779081,0.020359,,,,,,keyboard,after digit#7,"{""note"":""after digit#7"",""pd_used"":0}",1,0.008334,119.991927,1
Sergio_G01_CNS-LLF5HT7Y0,T01,OFFmed_OFFstim,20260304_202533,2026-03-04 20:25:46.118864,1,0,reading,DIGIT_READ8_ON,108,2026-03-04 20:26:52.918621,66.799440,0.734690,,6,,,,keyboard,digit#8 shown,"{""value"":6,""note"":""digit#8 shown"",""pd_used"":1}",1,0.008334,119.991927,1
Sergio_G01_CNS-LLF5HT7Y0,T01,OFFmed_OFFstim,20260304_202533,2026-03-04 20:25:46.118864,1,0,reading,PROBE_COUNT_OK_8,71,2026-03-04 20:26:53.989467,67.534130,0.345105,33.935113,slot#8,NaN,,,keyboard,probe_digit#8,"{""value"":""slot#8"",""entered"":null,""rt"":33.935112999984995,""note"":""probe_digit#8""}",1,0.008334,119.991927,1
Sergio_G01_CNS-LLF5HT7Y0,T01,OFFmed_OFFstim,20260304_202533,2026-03-04 20:25:46.118864,1,0,reading,DIGIT_READ8_OFF,123,2026-03-04 20:26:53.998156,67.879235,0.000000,,6,,,,keyboard,digit#8 off,"{""value"":6,""note"":""digit#8 off"",""pd_used"":0}",1,0.008334,119.991927,1
Sergio_G01_CNS-LLF5HT7Y0,T01,OFFmed_OFFstim,20260304_202533,2026-03-04 20:25:46.118864,1,0,reading,POSTREAD_FIX8_ON,208,2026-03-04 20:26:53.999888,67.879235,1.986427,,,,,,keyboard,after digit#8,"{""note"":""after digit#8""}",1,0.008334,119.991927,1
Sergio_G01_CNS-LLF5HT7Y0,T01,OFFmed_OFFstim,20260304_202533,2026-03-04 20:25:46.118864,1,0,reading,POSTREAD_FIX8_OFF,223,2026-03-04 20:26:55.985030,69.865662,0.017501,,,,,,keyboard,after digit#8,"{""note"":""after digit#8"",""pd_used"":0}",1,0.008334,119.991927,1
Sergio_G01_CNS-LLF5HT7Y0,T01,OFFmed_OFFstim,20260304_202533,2026-03-04 20:25:46.118864,1,0,reading,DIGIT_READ9_ON,109,2026-03-04 20:26:56.002340,69.883163,0.639345,,2,,,,keyboard,digit#9 shown,"{""value"":2,""note"":""digit#9 shown"",""pd_used"":1}",1,0.008334,119.991927,1
Sergio_G01_CNS-LLF5HT7Y0,T01,OFFmed_OFFstim,20260304_202533,2026-03-04 20:25:46.118864,1,0,reading,PROBE_COUNT_OK_9,71,2026-03-04 20:26:57.031259,70.522508,0.400107,36.923491,slot#9,NaN,,,keyboard,probe_digit#9,"{""value"":""slot#9"",""entered"":null,""rt"":36.923491099965759,""note"":""probe_digit#9""}",1,0.008334,119.991927,1
Sergio_G01_CNS-LLF5HT7Y0,T01,OFFmed_OFFstim,20260304_202533,2026-03-04 20:25:46.118864,1,0,reading,DIGIT_READ9_OFF,124,2026-03-04 20:26:57.041319,70.922615,0.000000,,2,,,,keyboard,digit#9 off,"{""value"":2,""note"":""digit#9 off"",""pd_used"":0}",1,0.008334,119.991927,1
Sergio_G01_CNS-LLF5HT7Y0,T01,OFFmed_OFFstim,20260304_202533,2026-03-04 20:25:46.118864,1,0,reading,POSTREAD_FIX9_ON,209,2026-03-04 20:26:57.042728,70.922615,1.724760,,,,,,keyboard,after digit#9,"{""note"":""after digit#9""}",1,0.008334,119.991927,1
Sergio_G01_CNS-LLF5HT7Y0,T01,OFFmed_OFFstim,20260304_202533,2026-03-04 20:25:46.118864,1,0,reading,POSTREAD_FIX9_OFF,224,2026-03-04 20:26:58.766416,72.647376,0.017046,,,,,,keyboard,after digit#9,"{""note"":""after digit#9"",""pd_used"":0}",1,0.008334,119.991927,1
Sergio_G01_CNS-LLF5HT7Y0,T01,OFFmed_OFFstim,20260304_202533,2026-03-04 20:25:46.118864,1,0,reading,DIGIT_READ10_ON,110,2026-03-04 20:26:58.782915,72.664421,2.055185,,1,,,,keyboard,digit#10 shown,"{""value"":1,""note"":""digit#10 shown"",""pd_used"":1}",1,0.008334,119.991927,1
Sergio_G01_CNS-LLF5HT7Y0,T01,OFFmed_OFFstim,20260304_202533,2026-03-04 20:25:46.118864,1,0,reading,PROBE_COUNT_OK_10,71,2026-03-04 20:27:01.291861,74.719606,0.462213,41.120589,slot#10,NaN,,,keyboard,probe_digit#10,"{""value"":""slot#10"",""entered"":null,""rt"":41.12058879993856,""note"":""probe_digit#10""}",1,0.008334,119.991927,1
Sergio_G01_CNS-LLF5HT7Y0,T01,OFFmed_OFFstim,20260304_202533,2026-03-04 20:25:46.118864,1,0,reading,DIGIT_READ10_OFF,125,2026-03-04 20:27:01.300910,75.181818,0.000000,,1,,,,keyboard,digit#10 off,"{""value"":1,""note"":""digit#10 off"",""pd_used"":0}",1,0.008334,119.991927,1
Sergio_G01_CNS-LLF5HT7Y0,T01,OFFmed_OFFstim,20260304_202533,2026-03-04 20:25:46.118864,1,0,reading,POSTREAD_FIX10_ON,210,2026-03-04 20:27:01.302574,75.181818,1.561904,,,,,,keyboard,after digit#10,"{""note"":""after digit#10""}",1,0.008334,119.991927,1
Sergio_G01_CNS-LLF5HT7Y0,T01,OFFmed_OFFstim,20260304_202533,2026-03-04 20:25:46.118864,1,0,reading,POSTREAD_FIX10_OFF,225,2026-03-04 20:27:02.862952,76.743723,0.020853,,,,,,keyboard,after digit#10,"{""note"":""after digit#10"",""pd_used"":0}",1,0.008334,119.991927,1
Sergio_G01_CNS-LLF5HT7Y0,T01,OFFmed_OFFstim,20260304_202533,2026-03-04 20:25:46.118864,1,0,reading,DIGIT_READ11_ON,111,2026-03-04 20:27:02.883760,76.764576,0.772420,,4,,,,keyboard,digit#11 shown,"{""value"":4,""note"":""digit#11 shown"",""pd_used"":1}",1,0.008334,119.991927,1
Sergio_G01_CNS-LLF5HT7Y0,T01,OFFmed_OFFstim,20260304_202533,2026-03-04 20:25:46.118864,1,0,reading,PROBE_COUNT_OK_11,71,2026-03-04 20:27:04.149091,77.536995,0.496473,43.937978,slot#11,NaN,,,keyboard,probe_digit#11,"{""value"":""slot#11"",""entered"":null,""rt"":43.937978200032376,""note"":""probe_digit#11""}",1,0.008334,119.991927,1
Sergio_G01_CNS-LLF5HT7Y0,T01,OFFmed_OFFstim,20260304_202533,2026-03-04 20:25:46.118864,1,0,reading,DIGIT_READ11_OFF,126,2026-03-04 20:27:04.152355,78.033468,0.000000,,4,,,,keyboard,digit#11 off,"{""value"":4,""note"":""digit#11 off"",""pd_used"":0}",1,0.008334,119.991927,1
Sergio_G01_CNS-LLF5HT7Y0,T01,OFFmed_OFFstim,20260304_202533,2026-03-04 20:25:46.118864,1,0,reading,POSTREAD_FIX11_ON,211,2026-03-04 20:27:04.153849,78.033468,1.880954,,,,,,keyboard,after digit#11,"{""note"":""after digit#11""}",1,0.008334,119.991927,1
Sergio_G01_CNS-LLF5HT7Y0,T01,OFFmed_OFFstim,20260304_202533,2026-03-04 20:25:46.118864,1,0,reading,POSTREAD_FIX11_OFF,226,2026-03-04 20:27:06.034040,79.914422,0.016688,,,,,,keyboard,after digit#11,"{""note"":""after digit#11"",""pd_used"":0}",1,0.008334,119.991927,1
Sergio_G01_CNS-LLF5HT7Y0,T01,OFFmed_OFFstim,20260304_202533,2026-03-04 20:25:46.118864,1,0,reading,DIGIT_READ12_ON,112,2026-03-04 20:27:06.050362,79.931111,0.682920,,1,,,,keyboard,digit#12 shown,"{""value"":1,""note"":""digit#12 shown"",""pd_used"":1}",1,0.008334,119.991927,1
Sergio_G01_CNS-LLF5HT7Y0,T01,OFFmed_OFFstim,20260304_202533,2026-03-04 20:25:46.118864,1,0,reading,PROBE_COUNT_OK_12,71,2026-03-04 20:27:07.170621,80.614031,0.446168,47.015014,slot#12,NaN,,,keyboard,probe_digit#12,"{""value"":""slot#12"",""entered"":null,""rt"":47.015013800002635,""note"":""probe_digit#12""}",1,0.008334,119.991927,1
Sergio_G01_CNS-LLF5HT7Y0,T01,OFFmed_OFFstim,20260304_202533,2026-03-04 20:25:46.118864,1,0,reading,DIGIT_READ12_OFF,127,2026-03-04 20:27:07.179356,81.060199,0.000000,,1,,,,keyboard,digit#12 off,"{""value"":1,""note"":""digit#12 off"",""pd_used"":0}",1,0.008334,119.991927,1
Sergio_G01_CNS-LLF5HT7Y0,T01,OFFmed_OFFstim,20260304_202533,2026-03-04 20:25:46.118864,1,0,reading,POSTREAD_FIX12_ON,212,2026-03-04 20:27:07.181265,81.060199,1.846465,,,,,,keyboard,after digit#12,"{""note"":""after digit#12""}",1,0.008334,119.991927,1
Sergio_G01_CNS-LLF5HT7Y0,T01,OFFmed_OFFstim,20260304_202533,2026-03-04 20:25:46.118864,1,0,reading,POSTREAD_FIX12_OFF,227,2026-03-04 20:27:09.025939,82.906664,0.020762,,,,,,keyboard,after digit#12,"{""note"":""after digit#12"",""pd_used"":0}",1,0.008334,119.991927,1
Sergio_G01_CNS-LLF5HT7Y0,T01,OFFmed_OFFstim,20260304_202533,2026-03-04 20:25:46.118864,1,0,reading,DIGIT_READ13_ON,113,2026-03-04 20:27:09.045978,82.927425,0.953340,,7,,,,keyboard,digit#13 shown,"{""value"":7,""note"":""digit#13 shown"",""pd_used"":1}",1,0.008334,119.991927,1
Sergio_G01_CNS-LLF5HT7Y0,T01,OFFmed_OFFstim,20260304_202533,2026-03-04 20:25:46.118864,1,0,reading,PROBE_COUNT_OK_13,71,2026-03-04 20:27:10.340763,83.880765,0.350638,50.281748,slot#13,NaN,,,keyboard,probe_digit#13,"{""value"":""slot#13"",""entered"":null,""rt"":50.281748099951074,""note"":""probe_digit#13""}",1,0.008334,119.991927,1
Sergio_G01_CNS-LLF5HT7Y0,T01,OFFmed_OFFstim,20260304_202533,2026-03-04 20:25:46.118864,1,0,reading,DIGIT_READ13_OFF,128,2026-03-04 20:27:10.350468,84.231403,0.000000,,7,,,,keyboard,digit#13 off,"{""value"":7,""note"":""digit#13 off"",""pd_used"":0}",1,0.008334,119.991927,1
Sergio_G01_CNS-LLF5HT7Y0,T01,OFFmed_OFFstim,20260304_202533,2026-03-04 20:25:46.118864,1,0,reading,POSTREAD_FIX13_ON,213,2026-03-04 20:27:10.352062,84.231403,1.964768,,,,,,keyboard,after digit#13,"{""note"":""after digit#13""}",1,0.008334,119.991927,1
Sergio_G01_CNS-LLF5HT7Y0,T01,OFFmed_OFFstim,20260304_202533,2026-03-04 20:25:46.118864,1,0,reading,POSTREAD_FIX13_OFF,228,2026-03-04 20:27:12.315445,86.196170,0.017820,,,,,,keyboard,after digit#13,"{""note"":""after digit#13"",""pd_used"":0}",1,0.008334,119.991927,1
Sergio_G01_CNS-LLF5HT7Y0,T01,OFFmed_OFFstim,20260304_202533,2026-03-04 20:25:46.118864,1,0,reading,DIGIT_READ14_ON,114,2026-03-04 20:27:12.333120,86.213991,1.925511,,2,,,,keyboard,digit#14 shown,"{""value"":2,""note"":""digit#14 shown"",""pd_used"":1}",1,0.008334,119.991927,1
Sergio_G01_CNS-LLF5HT7Y0,T01,OFFmed_OFFstim,20260304_202533,2026-03-04 20:25:46.118864,1,0,reading,PROBE_COUNT_OK_14,71,2026-03-04 20:27:14.850002,88.139501,0.600545,54.540484,slot#14,NaN,,,keyboard,probe_digit#14,"{""value"":""slot#14"",""entered"":null,""rt"":54.540484099998139,""note"":""probe_digit#14""}",1,0.008334,119.991927,1
Sergio_G01_CNS-LLF5HT7Y0,T01,OFFmed_OFFstim,20260304_202533,2026-03-04 20:25:46.118864,1,0,reading,DIGIT_READ14_OFF,129,2026-03-04 20:27:14.858565,88.740046,0.000000,,2,,,,keyboard,digit#14 off,"{""value"":2,""note"":""digit#14 off"",""pd_used"":0}",1,0.008334,119.991927,1
Sergio_G01_CNS-LLF5HT7Y0,T01,OFFmed_OFFstim,20260304_202533,2026-03-04 20:25:46.118864,1,0,reading,POSTREAD_FIX14_ON,214,2026-03-04 20:27:14.859438,88.740046,1.749896,,,,,,keyboard,after digit#14,"{""note"":""after digit#14""}",1,0.008334,119.991927,1
Sergio_G01_CNS-LLF5HT7Y0,T01,OFFmed_OFFstim,20260304_202533,2026-03-04 20:25:46.118864,1,0,reading,POSTREAD_FIX14_OFF,229,2026-03-04 20:27:16.609118,90.489942,0.018827,,,,,,keyboard,after digit#14,"{""note"":""after digit#14"",""pd_used"":0}",1,0.008334,119.991927,1
Sergio_G01_CNS-LLF5HT7Y0,T01,OFFmed_OFFstim,20260304_202533,2026-03-04 20:25:46.118864,1,0,reading,DIGIT_READ15_ON,115,2026-03-04 20:27:16.627925,90.508769,0.738032,,2,,,,keyboard,digit#15 shown,"{""value"":2,""note"":""digit#15 shown"",""pd_used"":1}",1,0.008334,119.991927,1
Sergio_G01_CNS-LLF5HT7Y0,T01,OFFmed_OFFstim,20260304_202533,2026-03-04 20:25:46.118864,1,0,reading,PROBE_COUNT_OK_15,71,2026-03-04 20:27:17.908129,91.246801,0.550785,57.647784,slot#15,NaN,,,keyboard,probe_digit#15,"{""value"":""slot#15"",""entered"":null,""rt"":57.647784000029787,""note"":""probe_digit#15""}",1,0.008334,119.991927,1
Sergio_G01_CNS-LLF5HT7Y0,T01,OFFmed_OFFstim,20260304_202533,2026-03-04 20:25:46.118864,1,0,reading,DIGIT_READ15_OFF,130,2026-03-04 20:27:17.916349,91.797586,0.000000,,2,,,,keyboard,digit#15 off,"{""value"":2,""note"":""digit#15 off"",""pd_used"":0}",1,0.008334,119.991927,1
Sergio_G01_CNS-LLF5HT7Y0,T01,OFFmed_OFFstim,20260304_202533,2026-03-04 20:25:46.118864,1,0,reading,POSTREAD_FIX15_ON,215,2026-03-04 20:27:17.917498,91.797586,3.322940,,,,,,keyboard,after digit#15,"{""note"":""after digit#15""}",1,0.008334,119.991927,1
Sergio_G01_CNS-LLF5HT7Y0,T01,OFFmed_OFFstim,20260304_202533,2026-03-04 20:25:46.118864,1,0,reading,POSTREAD_FIX15_OFF,230,2026-03-04 20:27:21.239996,95.120526,0.008971,,,,,,keyboard,after digit#15,"{""note"":""after digit#15"",""pd_used"":0}",1,0.008334,119.991927,1
Sergio_G01_CNS-LLF5HT7Y0,T01,OFFmed_OFFstim,20260304_202533,2026-03-04 20:25:46.118864,1,0,reading,READING_END,24,2026-03-04 20:27:21.248471,95.129497,0.010194,,,,,,keyboard,,{},1,0.008334,119.991927,1
Sergio_G01_CNS-LLF5HT7Y0,T01,OFFmed_OFFstim,20260304_202533,2026-03-04 20:25:46.118864,1,0,reading,START_PAGE_ON,4,2026-03-04 20:27:21.258864,95.139690,0.012260,,,,,,keyboard,,"{""pd_used"":0}",1,0.008334,119.991927,1
Sergio_G01_CNS-LLF5HT7Y0,T01,OFFmed_OFFstim,20260304_202533,2026-03-04 20:25:46.118864,1,0,reading,START_PAGE_ON,4,2026-03-04 20:27:21.258864,95.139690,1.855657,,,,,,keyboard,,"{""pd_used"":0}",1,0.008334,119.991927,1
Sergio_G01_CNS-LLF5HT7Y0,T01,OFFmed_OFFstim,20260304_202533,2026-03-04 20:25:46.118864,1,0,reading,START_PAGE_ON,4,2026-03-04 20:27:21.258864,95.139690,2.165154,,,,,,keyboard,,"{""pd_used"":0}",1,0.008334,119.991927,1
Sergio_G01_CNS-LLF5HT7Y0,T01,OFFmed_OFFstim,20260304_202533,2026-03-04 20:25:46.118864,1,1,reading,TRIAL_CHANGE,22,2026-03-04 20:27:23.423991,97.304844,0.002092,,,,,,keyboard,trial transition,"{""note"":""trial transition""}",1,0.008334,119.991927,1
Sergio_G01_CNS-LLF5HT7Y0,T01,OFFmed_OFFstim,20260304_202533,2026-03-04 20:25:46.118864,1,1,reading,TRIAL_START,20,2026-03-04 20:27:23.425748,97.306936,0.009935,,,,,,keyboard,,{},1,0.008334,119.991927,1
Sergio_G01_CNS-LLF5HT7Y0,T01,OFFmed_OFFstim,20260304_202533,2026-03-04 20:25:46.118864,1,1,fix1,FIX1_ON,30,2026-03-04 20:27:23.435902,97.316871,3.387804,,,,,,keyboard,,"{""pd_used"":0}",1,0.008334,119.991927,1
Sergio_G01_CNS-LLF5HT7Y0,T01,OFFmed_OFFstim,20260304_202533,2026-03-04 20:25:46.118864,1,1,fix1,FIX1_OFF,31,2026-03-04 20:27:26.823949,100.704675,0.014563,,,,,,keyboard,,"{""pd_used"":0}",1,0.008334,119.991927,1
Sergio_G01_CNS-LLF5HT7Y0,T01,OFFmed_OFFstim,20260304_202533,2026-03-04 20:25:46.118864,1,1,digit,DIGIT1_ON,141,2026-03-04 20:27:26.838356,100.719238,0.512839,,3,,,,keyboard,digit#1 shown,"{""value"":3,""note"":""digit#1 shown"",""pd_used"":1}",1,0.008334,119.991927,1
Sergio_G01_CNS-LLF5HT7Y0,T01,OFFmed_OFFstim,20260304_202533,2026-03-04 20:25:46.118864,1,1,digit,DIGIT1_OFF,146,2026-03-04 20:27:27.351310,101.232077,0.000000,,3,,,,keyboard,digit#1 off,"{""value"":3,""note"":""digit#1 off"",""pd_used"":0}",1,0.008334,119.991927,1
Sergio_G01_CNS-LLF5HT7Y0,T01,OFFmed_OFFstim,20260304_202533,2026-03-04 20:25:46.118864,1,1,digit,POSTDIG_FIX1_ON,151,2026-03-04 20:27:27.354237,101.232077,1.562790,,,,,,keyboard,after digit#1,"{""note"":""after digit#1""}",1,0.008334,119.991927,1
Sergio_G01_CNS-LLF5HT7Y0,T01,OFFmed_OFFstim,20260304_202533,2026-03-04 20:25:46.118864,1,1,digit,POSTDIG_FIX1_OFF,156,2026-03-04 20:27:28.914065,102.794867,0.016567,,,,,,keyboard,after digit#1,"{""note"":""after digit#1"",""pd_used"":0}",1,0.008334,119.991927,1
Sergio_G01_CNS-LLF5HT7Y0,T01,OFFmed_OFFstim,20260304_202533,2026-03-04 20:25:46.118864,1,1,digit,DIGIT2_ON,142,2026-03-04 20:27:28.930821,102.811435,0.511155,,9,,,,keyboard,digit#2 shown,"{""value"":9,""note"":""digit#2 shown"",""pd_used"":1}",1,0.008334,119.991927,1
Sergio_G01_CNS-LLF5HT7Y0,T01,OFFmed_OFFstim,20260304_202533,2026-03-04 20:25:46.118864,1,1,digit,DIGIT2_OFF,147,2026-03-04 20:27:29.441640,103.322590,0.000000,,9,,,,keyboard,digit#2 off,"{""value"":9,""note"":""digit#2 off"",""pd_used"":0}",1,0.008334,119.991927,1
Sergio_G01_CNS-LLF5HT7Y0,T01,OFFmed_OFFstim,20260304_202533,2026-03-04 20:25:46.118864,1,1,digit,POSTDIG_FIX2_ON,152,2026-03-04 20:27:29.442504,103.322590,1.733180,,,,,,keyboard,after digit#2,"{""note"":""after digit#2""}",1,0.008334,119.991927,1
Sergio_G01_CNS-LLF5HT7Y0,T01,OFFmed_OFFstim,20260304_202533,2026-03-04 20:25:46.118864,1,1,digit,POSTDIG_FIX2_OFF,157,2026-03-04 20:27:31.175228,105.055769,0.010590,,,,,,keyboard,after digit#2,"{""note"":""after digit#2"",""pd_used"":0}",1,0.008334,119.991927,1
Sergio_G01_CNS-LLF5HT7Y0,T01,OFFmed_OFFstim,20260304_202533,2026-03-04 20:25:46.118864,1,1,digit,DIGIT3_ON,143,2026-03-04 20:27:31.185437,105.066359,0.510668,,3,,,,keyboard,digit#3 shown,"{""value"":3,""note"":""digit#3 shown"",""pd_used"":1}",1,0.008334,119.991927,1
Sergio_G01_CNS-LLF5HT7Y0,T01,OFFmed_OFFstim,20260304_202533,2026-03-04 20:25:46.118864,1,1,digit,DIGIT3_OFF,148,2026-03-04 20:27:31.696277,105.577027,0.000000,,3,,,,keyboard,digit#3 off,"{""value"":3,""note"":""digit#3 off"",""pd_used"":0}",1,0.008334,119.991927,1
Sergio_G01_CNS-LLF5HT7Y0,T01,OFFmed_OFFstim,20260304_202533,2026-03-04 20:25:46.118864,1,1,digit,POSTDIG_FIX3_ON,153,2026-03-04 20:27:31.698055,105.577027,1.942694,,,,,,keyboard,after digit#3,"{""note"":""after digit#3""}",1,0.008334,119.991927,1
Sergio_G01_CNS-LLF5HT7Y0,T01,OFFmed_OFFstim,20260304_202533,2026-03-04 20:25:46.118864,1,1,digit,POSTDIG_FIX3_OFF,158,2026-03-04 20:27:33.638961,107.519721,0.011930,,,,,,keyboard,after digit#3,"{""note"":""after digit#3"",""pd_used"":0}",1,0.008334,119.991927,1
Sergio_G01_CNS-LLF5HT7Y0,T01,OFFmed_OFFstim,20260304_202533,2026-03-04 20:25:46.118864,1,1,digit,DIGIT4_ON,144,2026-03-04 20:27:33.650731,107.531652,0.510115,,9,,,,keyboard,digit#4 shown,"{""value"":9,""note"":""digit#4 shown"",""pd_used"":1}",1,0.008334,119.991927,1
Sergio_G01_CNS-LLF5HT7Y0,T01,OFFmed_OFFstim,20260304_202533,2026-03-04 20:25:46.118864,1,1,digit,DIGIT4_OFF,149,2026-03-04 20:27:34.161114,108.041766,0.000000,,9,,,,keyboard,digit#4 off,"{""value"":9,""note"":""digit#4 off"",""pd_used"":0}",1,0.008334,119.991927,1
Sergio_G01_CNS-LLF5HT7Y0,T01,OFFmed_OFFstim,20260304_202533,2026-03-04 20:25:46.118864,1,1,digit,POSTDIG_FIX4_ON,154,2026-03-04 20:27:34.162950,108.041766,1.820586,,,,,,keyboard,after digit#4,"{""note"":""after digit#4""}",1,0.008334,119.991927,1
Sergio_G01_CNS-LLF5HT7Y0,T01,OFFmed_OFFstim,20260304_202533,2026-03-04 20:25:46.118864,1,1,digit,POSTDIG_FIX4_OFF,159,2026-03-04 20:27:35.981685,109.862352,0.011302,,,,,,keyboard,after digit#4,"{""note"":""after digit#4"",""pd_used"":0}",1,0.008334,119.991927,1
Sergio_G01_CNS-LLF5HT7Y0,T01,OFFmed_OFFstim,20260304_202533,2026-03-04 20:25:46.118864,1,1,digit,DIGIT5_ON,145,2026-03-04 20:27:35.992768,109.873653,0.511476,,5,,,,keyboard,digit#5 shown,"{""value"":5,""note"":""digit#5 shown"",""pd_used"":1}",1,0.008334,119.991927,1
Sergio_G01_CNS-LLF5HT7Y0,T01,OFFmed_OFFstim,20260304_202533,2026-03-04 20:25:46.118864,1,1,digit,DIGIT5_OFF,150,2026-03-04 20:27:36.504311,110.385130,0.000000,,5,,,,keyboard,digit#5 off,"{""value"":5,""note"":""digit#5 off"",""pd_used"":0}",1,0.008334,119.991927,1
Sergio_G01_CNS-LLF5HT7Y0,T01,OFFmed_OFFstim,20260304_202533,2026-03-04 20:25:46.118864,1,1,digit,POSTDIG_FIX5_ON,155,2026-03-04 20:27:36.506040,110.385130,3.502763,,,,,,keyboard,after digit#5,"{""note"":""after digit#5""}",1,0.008334,119.991927,1
Sergio_G01_CNS-LLF5HT7Y0,T01,OFFmed_OFFstim,20260304_202533,2026-03-04 20:25:46.118864,1,1,digit,POSTDIG_FIX5_OFF,160,2026-03-04 20:27:40.007131,113.887892,0.014795,,,,,,keyboard,after digit#5,"{""note"":""after digit#5"",""pd_used"":0}",1,0.008334,119.991927,1
Sergio_G01_CNS-LLF5HT7Y0,T01,OFFmed_OFFstim,20260304_202533,2026-03-04 20:25:46.118864,1,1,distractor,DISTRACTOR_ON,50,2026-03-04 20:27:40.021868,113.902688,1.424521,,2+6=5,,,,keyboard,,"{""value"":""2+6=5"",""isCorrectTruth"":false,""trueSum"":8,""pd_used"":1}",1,0.008334,119.991927,1
Sergio_G01_CNS-LLF5HT7Y0,T01,OFFmed_OFFstim,20260304_202533,2026-03-04 20:25:46.118864,1,1,distractor,DISTRACTOR_ANS,51,2026-03-04 20:27:41.913297,115.327209,0.000000,1.424521,2+6=5,F,1,,keyboard,key= (False),"{""value"":""2+6=5"",""entered"":""F"",""rt"":1.424520600005053,""correct"":1,""note"":""key= (False)"",""truth"":false,""trueSum"":8,""shownSum"":5,""a"":2,""b"":6}",1,0.008334,119.991927,1
Sergio_G01_CNS-LLF5HT7Y0,T01,OFFmed_OFFstim,20260304_202533,2026-03-04 20:25:46.118864,1,1,distractor,ANS_CORRECT,100,2026-03-04 20:27:41.917313,115.327209,0.482298,,,,,,keyboard,,{},1,0.008334,119.991927,1
Sergio_G01_CNS-LLF5HT7Y0,T01,OFFmed_OFFstim,20260304_202533,2026-03-04 20:25:46.118864,1,1,distractor,DISTRACTOR_OFF,52,2026-03-04 20:27:41.928630,115.809507,0.000000,,,,,,keyboard,,"{""pd_used"":0}",1,0.008334,119.991927,1
Sergio_G01_CNS-LLF5HT7Y0,T01,OFFmed_OFFstim,20260304_202533,2026-03-04 20:25:46.118864,1,1,distractor,FIX2_ON,60,2026-03-04 20:27:41.930585,115.809507,3.090360,,,,,,keyboard,immediate after response,"{""note"":""immediate after response""}",1,0.008334,119.991927,1
Sergio_G01_CNS-LLF5HT7Y0,T01,OFFmed_OFFstim,20260304_202533,2026-03-04 20:25:46.118864,1,1,fix2,FIX2_OFF,61,2026-03-04 20:27:45.019039,118.899867,0.013632,,,,,,keyboard,,"{""pd_used"":0}",1,0.008334,119.991927,1
Sergio_G01_CNS-LLF5HT7Y0,T01,OFFmed_OFFstim,20260304_202533,2026-03-04 20:25:46.118864,1,1,probe,DIGIT_RECALL_LINE_1,161,2026-03-04 20:27:45.032753,118.913498,4.365839,,1,,,,keyboard,first recall question,"{""value"":1,""note"":""first recall question"",""pd_used"":1}",1,0.008334,119.991927,1
Sergio_G01_CNS-LLF5HT7Y0,T01,OFFmed_OFFstim,20260304_202533,2026-03-04 20:25:46.118864,1,1,probe,PROBE_DIGIT_OK_1,71,2026-03-04 20:27:49.895569,123.279337,0.509789,4.377250,slot#1,NaN,,,keyboard,probe_digit#1,"{""value"":""slot#1"",""entered"":null,""rt"":4.3772495999000967,""note"":""probe_digit#1""}",1,0.008334,119.991927,1
Sergio_G01_CNS-LLF5HT7Y0,T01,OFFmed_OFFstim,20260304_202533,2026-03-04 20:25:46.118864,1,1,probe,DIGIT1_OFF,146,2026-03-04 20:27:49.907834,123.789126,0.000000,,5,,,,keyboard,digit#1 off,"{""value"":5,""note"":""digit#1 off"",""pd_used"":0}",1,0.008334,119.991927,1
Sergio_G01_CNS-LLF5HT7Y0,T01,OFFmed_OFFstim,20260304_202533,2026-03-04 20:25:46.118864,1,1,probe,POSTDIG_FIX1_ON,151,2026-03-04 20:27:49.910236,123.789126,1.801229,,,,,,keyboard,after digit#1,"{""note"":""after digit#1""}",1,0.008334,119.991927,1
Sergio_G01_CNS-LLF5HT7Y0,T01,OFFmed_OFFstim,20260304_202533,2026-03-04 20:25:46.118864,1,1,probe,POSTDIG_FIX1_OFF,156,2026-03-04 20:27:51.709892,125.590355,0.022092,,,,,,keyboard,after digit#1,"{""note"":""after digit#1"",""pd_used"":0}",1,0.008334,119.991927,1
Sergio_G01_CNS-LLF5HT7Y0,T01,OFFmed_OFFstim,20260304_202533,2026-03-04 20:25:46.118864,1,1,probe,DIGIT_RECALL_LINE_2,162,2026-03-04 20:27:51.731781,125.612448,0.826333,,2,,,,keyboard,next recall question,"{""value"":2,""note"":""next recall question"",""pd_used"":1}",1,0.008334,119.991927,1
Sergio_G01_CNS-LLF5HT7Y0,T01,OFFmed_OFFstim,20260304_202533,2026-03-04 20:25:46.118864,1,1,probe,PROBE_DIGIT_OK_2,71,2026-03-04 20:27:52.891687,126.438781,0.342977,7.536693,slot#2,NaN,,,keyboard,probe_digit#2,"{""value"":""slot#2"",""entered"":null,""rt"":7.5366926999995485,""note"":""probe_digit#2""}",1,0.008334,119.991927,1
Sergio_G01_CNS-LLF5HT7Y0,T01,OFFmed_OFFstim,20260304_202533,2026-03-04 20:25:46.118864,1,1,probe,DIGIT2_OFF,147,2026-03-04 20:27:52.900866,126.781757,0.000000,,5,,,,keyboard,digit#2 off,"{""value"":5,""note"":""digit#2 off"",""pd_used"":0}",1,0.008334,119.991927,1
Sergio_G01_CNS-LLF5HT7Y0,T01,OFFmed_OFFstim,20260304_202533,2026-03-04 20:25:46.118864,1,1,probe,POSTDIG_FIX2_ON,152,2026-03-04 20:27:52.902576,126.781757,1.705467,,,,,,keyboard,after digit#2,"{""note"":""after digit#2""}",1,0.008334,119.991927,1
Sergio_G01_CNS-LLF5HT7Y0,T01,OFFmed_OFFstim,20260304_202533,2026-03-04 20:25:46.118864,1,1,probe,POSTDIG_FIX2_OFF,157,2026-03-04 20:27:54.606363,128.487224,0.018426,,,,,,keyboard,after digit#2,"{""note"":""after digit#2"",""pd_used"":0}",1,0.008334,119.991927,1
Sergio_G01_CNS-LLF5HT7Y0,T01,OFFmed_OFFstim,20260304_202533,2026-03-04 20:25:46.118864,1,1,probe,DIGIT_RECALL_LINE_3,163,2026-03-04 20:27:54.624653,128.505650,0.697489,,3,,,,keyboard,next recall question,"{""value"":3,""note"":""next recall question"",""pd_used"":1}",1,0.008334,119.991927,1
Sergio_G01_CNS-LLF5HT7Y0,T01,OFFmed_OFFstim,20260304_202533,2026-03-04 20:25:46.118864,1,1,probe,PROBE_DIGIT_OK_3,71,2026-03-04 20:27:55.922704,129.203139,0.610173,10.301052,slot#3,NaN,,,keyboard,probe_digit#3,"{""value"":""slot#3"",""entered"":null,""rt"":10.301051599904895,""note"":""probe_digit#3""}",1,0.008334,119.991927,1
Sergio_G01_CNS-LLF5HT7Y0,T01,OFFmed_OFFstim,20260304_202533,2026-03-04 20:25:46.118864,1,1,probe,DIGIT3_OFF,148,2026-03-04 20:27:55.932475,129.813312,0.000000,,5,,,,keyboard,digit#3 off,"{""value"":5,""note"":""digit#3 off"",""pd_used"":0}",1,0.008334,119.991927,1
Sergio_G01_CNS-LLF5HT7Y0,T01,OFFmed_OFFstim,20260304_202533,2026-03-04 20:25:46.118864,1,1,probe,POSTDIG_FIX3_ON,153,2026-03-04 20:27:55.934314,129.813312,1.855376,,,,,,keyboard,after digit#3,"{""note"":""after digit#3""}",1,0.008334,119.991927,1
Sergio_G01_CNS-LLF5HT7Y0,T01,OFFmed_OFFstim,20260304_202533,2026-03-04 20:25:46.118864,1,1,probe,POSTDIG_FIX3_OFF,158,2026-03-04 20:27:57.787883,131.668688,0.022889,,,,,,keyboard,after digit#3,"{""note"":""after digit#3"",""pd_used"":0}",1,0.008334,119.991927,1
Sergio_G01_CNS-LLF5HT7Y0,T01,OFFmed_OFFstim,20260304_202533,2026-03-04 20:25:46.118864,1,1,probe,DIGIT_RECALL_LINE_4,164,2026-03-04 20:27:57.810677,131.691576,0.632448,,4,,,,keyboard,next recall question,"{""value"":4,""note"":""next recall question"",""pd_used"":1}",1,0.008334,119.991927,1
Sergio_G01_CNS-LLF5HT7Y0,T01,OFFmed_OFFstim,20260304_202533,2026-03-04 20:25:46.118864,1,1,probe,PROBE_DIGIT_OK_4,71,2026-03-04 20:27:58.911758,132.324025,0.478695,13.421937,slot#4,NaN,,,keyboard,probe_digit#4,"{""value"":""slot#4"",""entered"":null,""rt"":13.421936800004914,""note"":""probe_digit#4""}",1,0.008334,119.991927,1
Sergio_G01_CNS-LLF5HT7Y0,T01,OFFmed_OFFstim,20260304_202533,2026-03-04 20:25:46.118864,1,1,probe,DIGIT4_OFF,149,2026-03-04 20:27:58.921716,132.802720,0.000000,,5,,,,keyboard,digit#4 off,"{""value"":5,""note"":""digit#4 off"",""pd_used"":0}",1,0.008334,119.991927,1
Sergio_G01_CNS-LLF5HT7Y0,T01,OFFmed_OFFstim,20260304_202533,2026-03-04 20:25:46.118864,1,1,probe,POSTDIG_FIX4_ON,154,2026-03-04 20:27:58.923469,132.802720,1.883506,,,,,,keyboard,after digit#4,"{""note"":""after digit#4""}",1,0.008334,119.991927,1
Sergio_G01_CNS-LLF5HT7Y0,T01,OFFmed_OFFstim,20260304_202533,2026-03-04 20:25:46.118864,1,1,probe,POSTDIG_FIX4_OFF,159,2026-03-04 20:28:00.805630,134.686226,0.019202,,,,,,keyboard,after digit#4,"{""note"":""after digit#4"",""pd_used"":0}",1,0.008334,119.991927,1
Sergio_G01_CNS-LLF5HT7Y0,T01,OFFmed_OFFstim,20260304_202533,2026-03-04 20:25:46.118864,1,1,probe,DIGIT_RECALL_LINE_5,165,2026-03-04 20:28:00.824547,134.705428,0.493652,,5,,,,keyboard,next recall question,"{""value"":5,""note"":""next recall question"",""pd_used"":1}",1,0.008334,119.991927,1
Sergio_G01_CNS-LLF5HT7Y0,T01,OFFmed_OFFstim,20260304_202533,2026-03-04 20:25:46.118864,1,1,probe,PROBE_DIGIT_OK_5,71,2026-03-04 20:28:01.920233,135.199080,0.611408,16.296992,slot#5,NaN,,,keyboard,probe_digit#5,"{""value"":""slot#5"",""entered"":null,""rt"":16.296992299961857,""note"":""probe_digit#5""}",1,0.008334,119.991927,1
Sergio_G01_CNS-LLF5HT7Y0,T01,OFFmed_OFFstim,20260304_202533,2026-03-04 20:25:46.118864,1,1,probe,DIGIT5_OFF,150,2026-03-04 20:28:01.929703,135.810488,0.000000,,5,,,,keyboard,digit#5 off,"{""value"":5,""note"":""digit#5 off"",""pd_used"":0}",1,0.008334,119.991927,1
Sergio_G01_CNS-LLF5HT7Y0,T01,OFFmed_OFFstim,20260304_202533,2026-03-04 20:25:46.118864,1,1,probe,POSTDIG_FIX5_ON,155,2026-03-04 20:28:01.931732,135.810488,3.032630,,,,,,keyboard,after digit#5,"{""note"":""after digit#5""}",1,0.008334,119.991927,1
Sergio_G01_CNS-LLF5HT7Y0,T01,OFFmed_OFFstim,20260304_202533,2026-03-04 20:25:46.118864,1,1,probe,POSTDIG_FIX5_OFF,160,2026-03-04 20:28:04.962378,138.843118,0.011923,,,,,,keyboard,after digit#5,"{""note"":""after digit#5"",""pd_used"":0}",1,0.008334,119.991927,1
Sergio_G01_CNS-LLF5HT7Y0,T01,OFFmed_OFFstim,20260304_202533,2026-03-04 20:25:46.118864,1,1,probe,PROBE_DONE,73,2026-03-04 20:28:04.973981,138.855041,0.002094,,,,,,keyboard,probe complete,"{""value"":"""",""note"":""probe complete""}",1,0.008334,119.991927,1
Sergio_G01_CNS-LLF5HT7Y0,T01,OFFmed_OFFstim,20260304_202533,2026-03-04 20:25:46.118864,1,1,probe,TRIAL_END,21,2026-03-04 20:28:04.975952,138.857136,0.001955,,,,,,keyboard,,{},1,0.008334,119.991927,1
Sergio_G01_CNS-LLF5HT7Y0,T01,OFFmed_OFFstim,20260304_202533,2026-03-04 20:25:46.118864,1,1,probe,BLOCK_END,11,2026-03-04 20:28:04.977885,138.859091,0.360475,,,,,,keyboard,,{},1,0.008334,119.991927,1
Sergio_G01_CNS-LLF5HT7Y0,T01,OFFmed_OFFstim,20260304_202533,2026-03-04 20:25:46.118864,1,1,probe,SESSION_END,3,2026-03-04 20:28:05.338710,139.219567,NaN,,,,,,keyboard,,{},1,0.008334,119.991927,1
