file_version,subject,condition,session,task_start_time,block,trial,phase,event_name,event_code,wall_clock,t_rel_sec,duration_to_next,rt,value_shown,entered_value,correct,key_name,device,note,json,screen_index,ifi,refresh_hz,pd_used
Sergio_G01_CNS-DDJXM3V64,S01,OFFmed_OFFstim,20260309_163235,2026-03-09 16:32:42.382129,NaN,NaN,,MIC_NOISEFLOOR,6,2026-03-09 16:32:45.427670,3.045103,4.160562,,,,,,keyboard,,{},1,NaN,NaN,1
Sergio_G01_CNS-DDJXM3V64,S01,OFFmed_OFFstim,20260309_163235,2026-03-09 16:32:42.382129,NaN,NaN,,MIC_REC_SPEECH,7,2026-03-09 16:32:49.588042,7.205665,6.642851,,,,,,keyboard,,{},1,NaN,NaN,1
Sergio_G01_CNS-DDJXM3V64,S01,OFFmed_OFFstim,20260309_163235,2026-03-09 16:32:42.382129,NaN,NaN,,SESSION_START,1,2026-03-09 16:33:06.021848,23.639564,0.000979,,,,,,keyboard,,{},1,0.016667,59.998886,1
Sergio_G01_CNS-DDJXM3V64,S01,OFFmed_OFFstim,20260309_163235,2026-03-09 16:32:42.382129,1,NaN,,BLOCK_START,10,2026-03-09 16:33:06.022600,23.640543,0.046670,,,,,,keyboard,,{},1,0.016667,59.998886,1
Sergio_G01_CNS-DDJXM3V64,S01,OFFmed_OFFstim,20260309_163235,2026-03-09 16:32:42.382129,1,0,reading,START_PAGE_ON,4,2026-03-09 16:33:06.072340,23.687213,0.016576,,,,,,keyboard,,"{""pd_used"":0}",1,0.016667,59.998886,1
Sergio_G01_CNS-DDJXM3V64,S01,OFFmed_OFFstim,20260309_163235,2026-03-09 16:32:42.382129,1,0,reading,START_PAGE_ON,4,2026-03-09 16:33:06.072340,23.687213,2.284689,,,,,,keyboard,,"{""pd_used"":0}",1,0.016667,59.998886,1
Sergio_G01_CNS-DDJXM3V64,S01,OFFmed_OFFstim,20260309_163235,2026-03-09 16:32:42.382129,1,0,reading,START_PAGE_ON,4,2026-03-09 16:33:06.072340,23.687213,2.603643,,,,,,keyboard,,"{""pd_used"":0}",1,0.016667,59.998886,1
Sergio_G01_CNS-DDJXM3V64,S01,OFFmed_OFFstim,20260309_163235,2026-03-09 16:32:42.382129,1,0,reading,READING_START,23,2026-03-09 16:33:08.674035,26.290856,0.013212,,,,,,keyboard,,{},1,0.016667,59.998886,1
Sergio_G01_CNS-DDJXM3V64,S01,OFFmed_OFFstim,20260309_163235,2026-03-09 16:32:42.382129,1,0,reading,DIGIT_READ1_ON,101,2026-03-09 16:33:08.688256,26.304068,1.290556,,1,,,,keyboard,digit#1 shown,"{""value"":1,""note"":""digit#1 shown"",""pd_used"":1}",1,0.016667,59.998886,1
Sergio_G01_CNS-DDJXM3V64,S01,OFFmed_OFFstim,20260309_163235,2026-03-09 16:32:42.382129,1,0,reading,PROBE_COUNT_OK_1,71,2026-03-09 16:33:10.521214,27.594624,0.559525,3.953164,slot#1,NaN,,,keyboard,probe_digit#1,"{""value"":""slot#1"",""entered"":null,""rt"":3.9531636999454349,""note"":""probe_digit#1""}",1,0.016667,59.998886,1
Sergio_G01_CNS-DDJXM3V64,S01,OFFmed_OFFstim,20260309_163235,2026-03-09 16:32:42.382129,1,0,reading,DIGIT_READ1_OFF,116,2026-03-09 16:33:10.539916,28.154149,0.000000,,1,,,,keyboard,digit#1 off,"{""value"":1,""note"":""digit#1 off"",""pd_used"":0}",1,0.016667,59.998886,1
Sergio_G01_CNS-DDJXM3V64,S01,OFFmed_OFFstim,20260309_163235,2026-03-09 16:32:42.382129,1,0,reading,POSTREAD_FIX1_ON,201,2026-03-09 16:33:10.540901,28.154149,2.016832,,,,,,keyboard,after digit#1,"{""note"":""after digit#1""}",1,0.016667,59.998886,1
Sergio_G01_CNS-DDJXM3V64,S01,OFFmed_OFFstim,20260309_163235,2026-03-09 16:32:42.382129,1,0,reading,POSTREAD_FIX1_OFF,216,2026-03-09 16:33:12.555615,30.170981,0.033275,,,,,,keyboard,after digit#1,"{""note"":""after digit#1"",""pd_used"":0}",1,0.016667,59.998886,1
Sergio_G01_CNS-DDJXM3V64,S01,OFFmed_OFFstim,20260309_163235,2026-03-09 16:32:42.382129,1,0,reading,DIGIT_READ2_ON,102,2026-03-09 16:33:12.590712,30.204257,0.344534,,9,,,,keyboard,digit#2 shown,"{""value"":9,""note"":""digit#2 shown"",""pd_used"":1}",1,0.016667,59.998886,1
Sergio_G01_CNS-DDJXM3V64,S01,OFFmed_OFFstim,20260309_163235,2026-03-09 16:32:42.382129,1,0,reading,PROBE_COUNT_OK_2,71,2026-03-09 16:33:13.649513,30.548791,0.738909,6.907330,slot#2,NaN,,,keyboard,probe_digit#2,"{""value"":""slot#2"",""entered"":null,""rt"":6.9073304999619722,""note"":""probe_digit#2""}",1,0.016667,59.998886,1
Sergio_G01_CNS-DDJXM3V64,S01,OFFmed_OFFstim,20260309_163235,2026-03-09 16:32:42.382129,1,0,reading,DIGIT_READ2_OFF,117,2026-03-09 16:33:13.672737,31.287700,0.000000,,9,,,,keyboard,digit#2 off,"{""value"":9,""note"":""digit#2 off"",""pd_used"":0}",1,0.016667,59.998886,1
Sergio_G01_CNS-DDJXM3V64,S01,OFFmed_OFFstim,20260309_163235,2026-03-09 16:32:42.382129,1,0,reading,POSTREAD_FIX2_ON,202,2026-03-09 16:33:13.675479,31.287700,1.866804,,,,,,keyboard,after digit#2,"{""note"":""after digit#2""}",1,0.016667,59.998886,1
Sergio_G01_CNS-DDJXM3V64,S01,OFFmed_OFFstim,20260309_163235,2026-03-09 16:32:42.382129,1,0,reading,POSTREAD_FIX2_OFF,217,2026-03-09 16:33:15.539311,33.154505,0.033275,,,,,,keyboard,after digit#2,"{""note"":""after digit#2"",""pd_used"":0}",1,0.016667,59.998886,1
Sergio_G01_CNS-DDJXM3V64,S01,OFFmed_OFFstim,20260309_163235,2026-03-09 16:32:42.382129,1,0,reading,DIGIT_READ3_ON,103,2026-03-09 16:33:15.574335,33.187779,0.097867,,6,,,,keyboard,digit#3 shown,"{""value"":6,""note"":""digit#3 shown"",""pd_used"":1}",1,0.016667,59.998886,1
Sergio_G01_CNS-DDJXM3V64,S01,OFFmed_OFFstim,20260309_163235,2026-03-09 16:32:42.382129,1,0,reading,PROBE_COUNT_OK_3,71,2026-03-09 16:33:16.830001,33.285646,1.169353,9.644186,slot#3,NaN,,,keyboard,probe_digit#3,"{""value"":""slot#3"",""entered"":null,""rt"":9.6441857998725027,""note"":""probe_digit#3""}",1,0.016667,59.998886,1
Sergio_G01_CNS-DDJXM3V64,S01,OFFmed_OFFstim,20260309_163235,2026-03-09 16:32:42.382129,1,0,reading,DIGIT_READ3_OFF,118,2026-03-09 16:33:16.840556,34.455000,0.000000,,6,,,,keyboard,digit#3 off,"{""value"":6,""note"":""digit#3 off"",""pd_used"":0}",1,0.016667,59.998886,1
Sergio_G01_CNS-DDJXM3V64,S01,OFFmed_OFFstim,20260309_163235,2026-03-09 16:32:42.382129,1,0,reading,POSTREAD_FIX3_ON,203,2026-03-09 16:33:16.841366,34.455000,1.583038,,,,,,keyboard,after digit#3,"{""note"":""after digit#3""}",1,0.016667,59.998886,1
Sergio_G01_CNS-DDJXM3V64,S01,OFFmed_OFFstim,20260309_163235,2026-03-09 16:32:42.382129,1,0,reading,POSTREAD_FIX3_OFF,218,2026-03-09 16:33:18.422284,36.038038,0.033244,,,,,,keyboard,after digit#3,"{""note"":""after digit#3"",""pd_used"":0}",1,0.016667,59.998886,1
Sergio_G01_CNS-DDJXM3V64,S01,OFFmed_OFFstim,20260309_163235,2026-03-09 16:32:42.382129,1,0,reading,DIGIT_READ4_ON,104,2026-03-09 16:33:18.458995,36.071282,0.526559,,7,,,,keyboard,digit#4 shown,"{""value"":7,""note"":""digit#4 shown"",""pd_used"":1}",1,0.016667,59.998886,1
Sergio_G01_CNS-DDJXM3V64,S01,OFFmed_OFFstim,20260309_163235,2026-03-09 16:32:42.382129,1,0,reading,PROBE_COUNT_OK_4,71,2026-03-09 16:33:19.591281,36.597841,0.623550,12.956380,slot#4,NaN,,,keyboard,probe_digit#4,"{""value"":""slot#4"",""entered"":null,""rt"":12.956380099989474,""note"":""probe_digit#4""}",1,0.016667,59.998886,1
Sergio_G01_CNS-DDJXM3V64,S01,OFFmed_OFFstim,20260309_163235,2026-03-09 16:32:42.382129,1,0,reading,DIGIT_READ4_OFF,119,2026-03-09 16:33:19.607673,37.221391,0.000000,,7,,,,keyboard,digit#4 off,"{""value"":7,""note"":""digit#4 off"",""pd_used"":0}",1,0.016667,59.998886,1
Sergio_G01_CNS-DDJXM3V64,S01,OFFmed_OFFstim,20260309_163235,2026-03-09 16:32:42.382129,1,0,reading,POSTREAD_FIX4_ON,204,2026-03-09 16:33:19.608601,37.221391,1.600154,,,,,,keyboard,after digit#4,"{""note"":""after digit#4""}",1,0.016667,59.998886,1
Sergio_G01_CNS-DDJXM3V64,S01,OFFmed_OFFstim,20260309_163235,2026-03-09 16:32:42.382129,1,0,reading,POSTREAD_FIX4_OFF,219,2026-03-09 16:33:21.206156,38.821545,0.033472,,,,,,keyboard,after digit#4,"{""note"":""after digit#4"",""pd_used"":0}",1,0.016667,59.998886,1
Sergio_G01_CNS-DDJXM3V64,S01,OFFmed_OFFstim,20260309_163235,2026-03-09 16:32:42.382129,1,0,reading,DIGIT_READ5_ON,105,2026-03-09 16:33:21.239420,38.855017,0.777779,,1,,,,keyboard,digit#5 shown,"{""value"":1,""note"":""digit#5 shown"",""pd_used"":1}",1,0.016667,59.998886,1
Sergio_G01_CNS-DDJXM3V64,S01,OFFmed_OFFstim,20260309_163235,2026-03-09 16:32:42.382129,1,0,reading,PROBE_COUNT_OK_5,71,2026-03-09 16:33:22.600523,39.632796,0.605469,15.991336,slot#5,NaN,,,keyboard,probe_digit#5,"{""value"":""slot#5"",""entered"":null,""rt"":15.991335799917579,""note"":""probe_digit#5""}",1,0.016667,59.998886,1
Sergio_G01_CNS-DDJXM3V64,S01,OFFmed_OFFstim,20260309_163235,2026-03-09 16:32:42.382129,1,0,reading,DIGIT_READ5_OFF,120,2026-03-09 16:33:22.623965,40.238266,0.000000,,1,,,,keyboard,digit#5 off,"{""value"":1,""note"":""digit#5 off"",""pd_used"":0}",1,0.016667,59.998886,1
Sergio_G01_CNS-DDJXM3V64,S01,OFFmed_OFFstim,20260309_163235,2026-03-09 16:32:42.382129,1,0,reading,POSTREAD_FIX5_ON,205,2026-03-09 16:33:22.625282,40.238266,1.883920,,,,,,keyboard,after digit#5,"{""note"":""after digit#5""}",1,0.016667,59.998886,1
Sergio_G01_CNS-DDJXM3V64,S01,OFFmed_OFFstim,20260309_163235,2026-03-09 16:32:42.382129,1,0,reading,POSTREAD_FIX5_OFF,220,2026-03-09 16:33:24.506645,42.122185,0.032902,,,,,,keyboard,after digit#5,"{""note"":""after digit#5"",""pd_used"":0}",1,0.016667,59.998886,1
Sergio_G01_CNS-DDJXM3V64,S01,OFFmed_OFFstim,20260309_163235,2026-03-09 16:32:42.382129,1,0,reading,DIGIT_READ6_ON,106,2026-03-09 16:33:24.539707,42.155087,0.223562,,2,,,,keyboard,digit#6 shown,"{""value"":2,""note"":""digit#6 shown"",""pd_used"":1}",1,0.016667,59.998886,1
Sergio_G01_CNS-DDJXM3V64,S01,OFFmed_OFFstim,20260309_163235,2026-03-09 16:32:42.382129,1,0,reading,PROBE_COUNT_OK_6,71,2026-03-09 16:33:25.639579,42.378649,0.893167,18.737188,slot#6,NaN,,,keyboard,probe_digit#6,"{""value"":""slot#6"",""entered"":null,""rt"":18.737188200000674,""note"":""probe_digit#6""}",1,0.016667,59.998886,1
Sergio_G01_CNS-DDJXM3V64,S01,OFFmed_OFFstim,20260309_163235,2026-03-09 16:32:42.382129,1,0,reading,DIGIT_READ6_OFF,121,2026-03-09 16:33:25.656728,43.271816,0.000000,,2,,,,keyboard,digit#6 off,"{""value"":2,""note"":""digit#6 off"",""pd_used"":0}",1,0.016667,59.998886,1
Sergio_G01_CNS-DDJXM3V64,S01,OFFmed_OFFstim,20260309_163235,2026-03-09 16:32:42.382129,1,0,reading,POSTREAD_FIX6_ON,206,2026-03-09 16:33:25.657649,43.271816,1.966992,,,,,,keyboard,after digit#6,"{""note"":""after digit#6""}",1,0.016667,59.998886,1
Sergio_G01_CNS-DDJXM3V64,S01,OFFmed_OFFstim,20260309_163235,2026-03-09 16:32:42.382129,1,0,reading,POSTREAD_FIX6_OFF,221,2026-03-09 16:33:27.623115,45.238808,0.033104,,,,,,keyboard,after digit#6,"{""note"":""after digit#6"",""pd_used"":0}",1,0.016667,59.998886,1
Sergio_G01_CNS-DDJXM3V64,S01,OFFmed_OFFstim,20260309_163235,2026-03-09 16:32:42.382129,1,0,reading,DIGIT_READ7_ON,107,2026-03-09 16:33:27.658237,45.271912,0.337136,,2,,,,keyboard,digit#7 shown,"{""value"":2,""note"":""digit#7 shown"",""pd_used"":1}",1,0.016667,59.998886,1
Sergio_G01_CNS-DDJXM3V64,S01,OFFmed_OFFstim,20260309_163235,2026-03-09 16:32:42.382129,1,0,reading,PROBE_COUNT_OK_7,71,2026-03-09 16:33:28.849711,45.609048,0.879616,21.967588,slot#7,NaN,,,keyboard,probe_digit#7,"{""value"":""slot#7"",""entered"":null,""rt"":21.967587599996477,""note"":""probe_digit#7""}",1,0.016667,59.998886,1
Sergio_G01_CNS-DDJXM3V64,S01,OFFmed_OFFstim,20260309_163235,2026-03-09 16:32:42.382129,1,0,reading,DIGIT_READ7_OFF,122,2026-03-09 16:33:28.874603,46.488664,0.000000,,2,,,,keyboard,digit#7 off,"{""value"":2,""note"":""digit#7 off"",""pd_used"":0}",1,0.016667,59.998886,1
Sergio_G01_CNS-DDJXM3V64,S01,OFFmed_OFFstim,20260309_163235,2026-03-09 16:32:42.382129,1,0,reading,POSTREAD_FIX7_ON,207,2026-03-09 16:33:28.875380,46.488664,1.566803,,,,,,keyboard,after digit#7,"{""note"":""after digit#7""}",1,0.016667,59.998886,1
Sergio_G01_CNS-DDJXM3V64,S01,OFFmed_OFFstim,20260309_163235,2026-03-09 16:32:42.382129,1,0,reading,POSTREAD_FIX7_OFF,222,2026-03-09 16:33:30.440835,48.055466,0.033332,,,,,,keyboard,after digit#7,"{""note"":""after digit#7"",""pd_used"":0}",1,0.016667,59.998886,1
Sergio_G01_CNS-DDJXM3V64,S01,OFFmed_OFFstim,20260309_163235,2026-03-09 16:32:42.382129,1,0,reading,DIGIT_READ8_ON,108,2026-03-09 16:33:30.474215,48.088799,0.550917,,1,,,,keyboard,digit#8 shown,"{""value"":1,""note"":""digit#8 shown"",""pd_used"":1}",1,0.016667,59.998886,1
Sergio_G01_CNS-DDJXM3V64,S01,OFFmed_OFFstim,20260309_163235,2026-03-09 16:32:42.382129,1,0,reading,PROBE_COUNT_OK_8,71,2026-03-09 16:33:31.819443,48.639716,0.815763,24.998255,slot#8,NaN,,,keyboard,probe_digit#8,"{""value"":""slot#8"",""entered"":null,""rt"":24.998254999984056,""note"":""probe_digit#8""}",1,0.016667,59.998886,1
Sergio_G01_CNS-DDJXM3V64,S01,OFFmed_OFFstim,20260309_163235,2026-03-09 16:32:42.382129,1,0,reading,DIGIT_READ8_OFF,123,2026-03-09 16:33:31.843070,49.455478,0.000000,,1,,,,keyboard,digit#8 off,"{""value"":1,""note"":""digit#8 off"",""pd_used"":0}",1,0.016667,59.998886,1
Sergio_G01_CNS-DDJXM3V64,S01,OFFmed_OFFstim,20260309_163235,2026-03-09 16:32:42.382129,1,0,reading,POSTREAD_FIX8_ON,208,2026-03-09 16:33:31.844038,49.455478,1.566859,,,,,,keyboard,after digit#8,"{""note"":""after digit#8""}",1,0.016667,59.998886,1
Sergio_G01_CNS-DDJXM3V64,S01,OFFmed_OFFstim,20260309_163235,2026-03-09 16:32:42.382129,1,0,reading,POSTREAD_FIX8_OFF,223,2026-03-09 16:33:33.406828,51.022337,0.033244,,,,,,keyboard,after digit#8,"{""note"":""after digit#8"",""pd_used"":0}",1,0.016667,59.998886,1
Sergio_G01_CNS-DDJXM3V64,S01,OFFmed_OFFstim,20260309_163235,2026-03-09 16:32:42.382129,1,0,reading,DIGIT_READ9_ON,109,2026-03-09 16:33:33.443071,51.055581,0.533915,,9,,,,keyboard,digit#9 shown,"{""value"":9,""note"":""digit#9 shown"",""pd_used"":1}",1,0.016667,59.998886,1
Sergio_G01_CNS-DDJXM3V64,S01,OFFmed_OFFstim,20260309_163235,2026-03-09 16:32:42.382129,1,0,reading,PROBE_COUNT_OK_9,71,2026-03-09 16:33:34.718962,51.589497,0.766155,27.948036,slot#9,NaN,,,keyboard,probe_digit#9,"{""value"":""slot#9"",""entered"":null,""rt"":27.948036199901253,""note"":""probe_digit#9""}",1,0.016667,59.998886,1
Sergio_G01_CNS-DDJXM3V64,S01,OFFmed_OFFstim,20260309_163235,2026-03-09 16:32:42.382129,1,0,reading,DIGIT_READ9_OFF,124,2026-03-09 16:33:34.743545,52.355652,0.000000,,9,,,,keyboard,digit#9 off,"{""value"":9,""note"":""digit#9 off"",""pd_used"":0}",1,0.016667,59.998886,1
Sergio_G01_CNS-DDJXM3V64,S01,OFFmed_OFFstim,20260309_163235,2026-03-09 16:32:42.382129,1,0,reading,POSTREAD_FIX9_ON,209,2026-03-09 16:33:34.744329,52.355652,1.716867,,,,,,keyboard,after digit#9,"{""note"":""after digit#9""}",1,0.016667,59.998886,1
Sergio_G01_CNS-DDJXM3V64,S01,OFFmed_OFFstim,20260309_163235,2026-03-09 16:32:42.382129,1,0,reading,POSTREAD_FIX9_OFF,224,2026-03-09 16:33:36.457456,54.072519,0.033290,,,,,,keyboard,after digit#9,"{""note"":""after digit#9"",""pd_used"":0}",1,0.016667,59.998886,1
Sergio_G01_CNS-DDJXM3V64,S01,OFFmed_OFFstim,20260309_163235,2026-03-09 16:32:42.382129,1,0,reading,DIGIT_READ10_ON,110,2026-03-09 16:33:36.492372,54.105809,0.361860,,8,,,,keyboard,digit#10 shown,"{""value"":8,""note"":""digit#10 shown"",""pd_used"":1}",1,0.016667,59.998886,1
Sergio_G01_CNS-DDJXM3V64,S01,OFFmed_OFFstim,20260309_163235,2026-03-09 16:32:42.382129,1,0,reading,PROBE_COUNT_OK_10,71,2026-03-09 16:33:37.621671,54.467669,0.788179,30.826208,slot#10,NaN,,,keyboard,probe_digit#10,"{""value"":""slot#10"",""entered"":null,""rt"":30.826208399841562,""note"":""probe_digit#10""}",1,0.016667,59.998886,1
Sergio_G01_CNS-DDJXM3V64,S01,OFFmed_OFFstim,20260309_163235,2026-03-09 16:32:42.382129,1,0,reading,DIGIT_READ10_OFF,125,2026-03-09 16:33:37.643460,55.255848,0.000000,,8,,,,keyboard,digit#10 off,"{""value"":8,""note"":""digit#10 off"",""pd_used"":0}",1,0.016667,59.998886,1
Sergio_G01_CNS-DDJXM3V64,S01,OFFmed_OFFstim,20260309_163235,2026-03-09 16:32:42.382129,1,0,reading,POSTREAD_FIX10_ON,210,2026-03-09 16:33:37.644252,55.255848,1.967182,,,,,,keyboard,after digit#10,"{""note"":""after digit#10""}",1,0.016667,59.998886,1
Sergio_G01_CNS-DDJXM3V64,S01,OFFmed_OFFstim,20260309_163235,2026-03-09 16:32:42.382129,1,0,reading,POSTREAD_FIX10_OFF,225,2026-03-09 16:33:39.607346,57.223030,0.032981,,,,,,keyboard,after digit#10,"{""note"":""after digit#10"",""pd_used"":0}",1,0.016667,59.998886,1
Sergio_G01_CNS-DDJXM3V64,S01,OFFmed_OFFstim,20260309_163235,2026-03-09 16:32:42.382129,1,0,reading,DIGIT_READ11_ON,111,2026-03-09 16:33:39.642445,57.256011,0.395657,,7,,,,keyboard,digit#11 shown,"{""value"":7,""note"":""digit#11 shown"",""pd_used"":1}",1,0.016667,59.998886,1
Sergio_G01_CNS-DDJXM3V64,S01,OFFmed_OFFstim,20260309_163235,2026-03-09 16:32:42.382129,1,0,reading,PROBE_COUNT_OK_11,71,2026-03-09 16:33:40.809660,57.651668,0.787794,34.010208,slot#11,NaN,,,keyboard,probe_digit#11,"{""value"":""slot#11"",""entered"":null,""rt"":34.010207699844614,""note"":""probe_digit#11""}",1,0.016667,59.998886,1
Sergio_G01_CNS-DDJXM3V64,S01,OFFmed_OFFstim,20260309_163235,2026-03-09 16:32:42.382129,1,0,reading,DIGIT_READ11_OFF,126,2026-03-09 16:33:40.824274,58.439463,0.000000,,7,,,,keyboard,digit#11 off,"{""value"":7,""note"":""digit#11 off"",""pd_used"":0}",1,0.016667,59.998886,1
Sergio_G01_CNS-DDJXM3V64,S01,OFFmed_OFFstim,20260309_163235,2026-03-09 16:32:42.382129,1,0,reading,POSTREAD_FIX11_ON,211,2026-03-09 16:33:40.824976,58.439463,1.633407,,,,,,keyboard,after digit#11,"{""note"":""after digit#11""}",1,0.016667,59.998886,1
Sergio_G01_CNS-DDJXM3V64,S01,OFFmed_OFFstim,20260309_163235,2026-03-09 16:32:42.382129,1,0,reading,POSTREAD_FIX11_OFF,226,2026-03-09 16:33:42.459170,60.072870,0.033382,,,,,,keyboard,after digit#11,"{""note"":""after digit#11"",""pd_used"":0}",1,0.016667,59.998886,1
Sergio_G01_CNS-DDJXM3V64,S01,OFFmed_OFFstim,20260309_163235,2026-03-09 16:32:42.382129,1,0,reading,DIGIT_READ12_ON,112,2026-03-09 16:33:42.490442,60.106252,0.637513,,0,,,,keyboard,digit#12 shown,"{""value"":0,""note"":""digit#12 shown"",""pd_used"":1}",1,0.016667,59.998886,1
Sergio_G01_CNS-DDJXM3V64,S01,OFFmed_OFFstim,20260309_163235,2026-03-09 16:32:42.382129,1,0,reading,PROBE_COUNT_OK_12,71,2026-03-09 16:33:43.970866,60.743764,0.862561,37.102304,slot#12,NaN,,,keyboard,probe_digit#12,"{""value"":""slot#12"",""entered"":null,""rt"":37.102303699823096,""note"":""probe_digit#12""}",1,0.016667,59.998886,1
Sergio_G01_CNS-DDJXM3V64,S01,OFFmed_OFFstim,20260309_163235,2026-03-09 16:32:42.382129,1,0,reading,DIGIT_READ12_OFF,127,2026-03-09 16:33:43.991634,61.606325,0.000000,,0,,,,keyboard,digit#12 off,"{""value"":0,""note"":""digit#12 off"",""pd_used"":0}",1,0.016667,59.998886,1
Sergio_G01_CNS-DDJXM3V64,S01,OFFmed_OFFstim,20260309_163235,2026-03-09 16:32:42.382129,1,0,reading,POSTREAD_FIX12_ON,212,2026-03-09 16:33:43.992439,61.606325,1.867321,,,,,,keyboard,after digit#12,"{""note"":""after digit#12""}",1,0.016667,59.998886,1
Sergio_G01_CNS-DDJXM3V64,S01,OFFmed_OFFstim,20260309_163235,2026-03-09 16:32:42.382129,1,0,reading,POSTREAD_FIX12_OFF,227,2026-03-09 16:33:45.860443,63.473646,0.033166,,,,,,keyboard,after digit#12,"{""note"":""after digit#12"",""pd_used"":0}",1,0.016667,59.998886,1
Sergio_G01_CNS-DDJXM3V64,S01,OFFmed_OFFstim,20260309_163235,2026-03-09 16:32:42.382129,1,0,reading,DIGIT_READ13_ON,113,2026-03-09 16:33:45.893318,63.506812,0.353101,,2,,,,keyboard,digit#13 shown,"{""value"":2,""note"":""digit#13 shown"",""pd_used"":1}",1,0.016667,59.998886,1
Sergio_G01_CNS-DDJXM3V64,S01,OFFmed_OFFstim,20260309_163235,2026-03-09 16:32:42.382129,1,0,reading,PROBE_COUNT_OK_13,71,2026-03-09 16:33:47.330093,63.859912,1.096547,40.218452,slot#13,NaN,,,keyboard,probe_digit#13,"{""value"":""slot#13"",""entered"":null,""rt"":40.218451699940488,""note"":""probe_digit#13""}",1,0.016667,59.998886,1
Sergio_G01_CNS-DDJXM3V64,S01,OFFmed_OFFstim,20260309_163235,2026-03-09 16:32:42.382129,1,0,reading,DIGIT_READ13_OFF,128,2026-03-09 16:33:47.344563,64.956459,0.000000,,2,,,,keyboard,digit#13 off,"{""value"":2,""note"":""digit#13 off"",""pd_used"":0}",1,0.016667,59.998886,1
Sergio_G01_CNS-DDJXM3V64,S01,OFFmed_OFFstim,20260309_163235,2026-03-09 16:32:42.382129,1,0,reading,POSTREAD_FIX13_ON,213,2026-03-09 16:33:47.345295,64.956459,1.883580,,,,,,keyboard,after digit#13,"{""note"":""after digit#13""}",1,0.016667,59.998886,1
Sergio_G01_CNS-DDJXM3V64,S01,OFFmed_OFFstim,20260309_163235,2026-03-09 16:32:42.382129,1,0,reading,POSTREAD_FIX13_OFF,228,2026-03-09 16:33:49.224053,66.840039,0.033309,,,,,,keyboard,after digit#13,"{""note"":""after digit#13"",""pd_used"":0}",1,0.016667,59.998886,1
Sergio_G01_CNS-DDJXM3V64,S01,OFFmed_OFFstim,20260309_163235,2026-03-09 16:32:42.382129,1,0,reading,DIGIT_READ14_ON,114,2026-03-09 16:33:49.258115,66.873347,0.466610,,1,,,,keyboard,digit#14 shown,"{""value"":1,""note"":""digit#14 shown"",""pd_used"":1}",1,0.016667,59.998886,1
Sergio_G01_CNS-DDJXM3V64,S01,OFFmed_OFFstim,20260309_163235,2026-03-09 16:32:42.382129,1,0,reading,PROBE_COUNT_OK_14,71,2026-03-09 16:33:50.541151,67.339957,0.833417,43.698497,slot#14,NaN,,,keyboard,probe_digit#14,"{""value"":""slot#14"",""entered"":null,""rt"":43.698496700031683,""note"":""probe_digit#14""}",1,0.016667,59.998886,1
Sergio_G01_CNS-DDJXM3V64,S01,OFFmed_OFFstim,20260309_163235,2026-03-09 16:32:42.382129,1,0,reading,DIGIT_READ14_OFF,129,2026-03-09 16:33:50.560206,68.173374,0.000000,,1,,,,keyboard,digit#14 off,"{""value"":1,""note"":""digit#14 off"",""pd_used"":0}",1,0.016667,59.998886,1
Sergio_G01_CNS-DDJXM3V64,S01,OFFmed_OFFstim,20260309_163235,2026-03-09 16:32:42.382129,1,0,reading,POSTREAD_FIX14_ON,214,2026-03-09 16:33:50.560921,68.173374,1.666840,,,,,,keyboard,after digit#14,"{""note"":""after digit#14""}",1,0.016667,59.998886,1
Sergio_G01_CNS-DDJXM3V64,S01,OFFmed_OFFstim,20260309_163235,2026-03-09 16:32:42.382129,1,0,reading,POSTREAD_FIX14_OFF,229,2026-03-09 16:33:52.225098,69.840214,0.033337,,,,,,keyboard,after digit#14,"{""note"":""after digit#14"",""pd_used"":0}",1,0.016667,59.998886,1
Sergio_G01_CNS-DDJXM3V64,S01,OFFmed_OFFstim,20260309_163235,2026-03-09 16:32:42.382129,1,0,reading,DIGIT_READ15_ON,115,2026-03-09 16:33:52.257782,69.873551,0.355386,,0,,,,keyboard,digit#15 shown,"{""value"":0,""note"":""digit#15 shown"",""pd_used"":1}",1,0.016667,59.998886,1
Sergio_G01_CNS-DDJXM3V64,S01,OFFmed_OFFstim,20260309_163235,2026-03-09 16:32:42.382129,1,0,reading,PROBE_COUNT_OK_15,71,2026-03-09 16:33:53.729332,70.228937,1.127961,46.587476,slot#15,NaN,,,keyboard,probe_digit#15,"{""value"":""slot#15"",""entered"":null,""rt"":46.58747629984282,""note"":""probe_digit#15""}",1,0.016667,59.998886,1
Sergio_G01_CNS-DDJXM3V64,S01,OFFmed_OFFstim,20260309_163235,2026-03-09 16:32:42.382129,1,0,reading,DIGIT_READ15_OFF,130,2026-03-09 16:33:53.744427,71.356897,0.000000,,0,,,,keyboard,digit#15 off,"{""value"":0,""note"":""digit#15 off"",""pd_used"":0}",1,0.016667,59.998886,1
Sergio_G01_CNS-DDJXM3V64,S01,OFFmed_OFFstim,20260309_163235,2026-03-09 16:32:42.382129,1,0,reading,POSTREAD_FIX15_ON,215,2026-03-09 16:33:53.745148,71.356897,3.216929,,,,,,keyboard,after digit#15,"{""note"":""after digit#15""}",1,0.016667,59.998886,1
Sergio_G01_CNS-DDJXM3V64,S01,OFFmed_OFFstim,20260309_163235,2026-03-09 16:32:42.382129,1,0,reading,POSTREAD_FIX15_OFF,230,2026-03-09 16:33:56.959434,74.573826,0.020321,,,,,,keyboard,after digit#15,"{""note"":""after digit#15"",""pd_used"":0}",1,0.016667,59.998886,1
Sergio_G01_CNS-DDJXM3V64,S01,OFFmed_OFFstim,20260309_163235,2026-03-09 16:32:42.382129,1,0,reading,READING_END,24,2026-03-09 16:33:56.976350,74.594147,0.013231,,,,,,keyboard,,{},1,0.016667,59.998886,1
Sergio_G01_CNS-DDJXM3V64,S01,OFFmed_OFFstim,20260309_163235,2026-03-09 16:32:42.382129,1,0,reading,START_PAGE_ON,4,2026-03-09 16:33:56.993898,74.607378,0.016419,,,,,,keyboard,,"{""pd_used"":0}",1,0.016667,59.998886,1
Sergio_G01_CNS-DDJXM3V64,S01,OFFmed_OFFstim,20260309_163235,2026-03-09 16:32:42.382129,1,0,reading,START_PAGE_ON,4,2026-03-09 16:33:56.993898,74.607378,1.972161,,,,,,keyboard,,"{""pd_used"":0}",1,0.016667,59.998886,1
Sergio_G01_CNS-DDJXM3V64,S01,OFFmed_OFFstim,20260309_163235,2026-03-09 16:32:42.382129,1,0,reading,START_PAGE_ON,4,2026-03-09 16:33:56.993898,74.607378,2.288236,,,,,,keyboard,,"{""pd_used"":0}",1,0.016667,59.998886,1
Sergio_G01_CNS-DDJXM3V64,S01,OFFmed_OFFstim,20260309_163235,2026-03-09 16:32:42.382129,1,1,reading,TRIAL_CHANGE,22,2026-03-09 16:33:59.278490,76.895614,0.001914,,,,,,keyboard,trial transition,"{""note"":""trial transition""}",1,0.016667,59.998886,1
Sergio_G01_CNS-DDJXM3V64,S01,OFFmed_OFFstim,20260309_163235,2026-03-09 16:32:42.382129,1,1,reading,TRIAL_START,20,2026-03-09 16:33:59.279884,76.897528,0.009812,,,,,,keyboard,,{},1,0.016667,59.998886,1
Sergio_G01_CNS-DDJXM3V64,S01,OFFmed_OFFstim,20260309_163235,2026-03-09 16:32:42.382129,1,1,fix1,FIX1_ON,30,2026-03-09 16:33:59.292832,76.907340,3.433863,,,,,,keyboard,,"{""pd_used"":0}",1,0.016667,59.998886,1
Sergio_G01_CNS-DDJXM3V64,S01,OFFmed_OFFstim,20260309_163235,2026-03-09 16:32:42.382129,1,1,fix1,FIX1_OFF,31,2026-03-09 16:34:02.725072,80.341203,0.016349,,,,,,keyboard,,"{""pd_used"":0}",1,0.016667,59.998886,1
Sergio_G01_CNS-DDJXM3V64,S01,OFFmed_OFFstim,20260309_163235,2026-03-09 16:32:42.382129,1,1,digit,DIGIT1_ON,141,2026-03-09 16:34:02.742107,80.357552,0.517002,,4,,,,keyboard,digit#1 shown,"{""value"":4,""note"":""digit#1 shown"",""pd_used"":1}",1,0.016667,59.998886,1
Sergio_G01_CNS-DDJXM3V64,S01,OFFmed_OFFstim,20260309_163235,2026-03-09 16:32:42.382129,1,1,digit,DIGIT1_OFF,146,2026-03-09 16:34:03.259498,80.874554,0.000000,,4,,,,keyboard,digit#1 off,"{""value"":4,""note"":""digit#1 off"",""pd_used"":0}",1,0.016667,59.998886,1
Sergio_G01_CNS-DDJXM3V64,S01,OFFmed_OFFstim,20260309_163235,2026-03-09 16:32:42.382129,1,1,digit,POSTDIG_FIX1_ON,151,2026-03-09 16:34:03.260571,80.874554,1.833312,,,,,,keyboard,after digit#1,"{""note"":""after digit#1""}",1,0.016667,59.998886,1
Sergio_G01_CNS-DDJXM3V64,S01,OFFmed_OFFstim,20260309_163235,2026-03-09 16:32:42.382129,1,1,digit,POSTDIG_FIX1_OFF,156,2026-03-09 16:34:05.093288,82.707866,0.016566,,,,,,keyboard,after digit#1,"{""note"":""after digit#1"",""pd_used"":0}",1,0.016667,59.998886,1
Sergio_G01_CNS-DDJXM3V64,S01,OFFmed_OFFstim,20260309_163235,2026-03-09 16:32:42.382129,1,1,digit,DIGIT2_ON,142,2026-03-09 16:34:05.108233,82.724432,0.516635,,8,,,,keyboard,digit#2 shown,"{""value"":8,""note"":""digit#2 shown"",""pd_used"":1}",1,0.016667,59.998886,1
Sergio_G01_CNS-DDJXM3V64,S01,OFFmed_OFFstim,20260309_163235,2026-03-09 16:32:42.382129,1,1,digit,DIGIT2_OFF,147,2026-03-09 16:34:05.626222,83.241067,0.000000,,8,,,,keyboard,digit#2 off,"{""value"":8,""note"":""digit#2 off"",""pd_used"":0}",1,0.016667,59.998886,1
Sergio_G01_CNS-DDJXM3V64,S01,OFFmed_OFFstim,20260309_163235,2026-03-09 16:32:42.382129,1,1,digit,POSTDIG_FIX2_ON,152,2026-03-09 16:34:05.627571,83.241067,1.716766,,,,,,keyboard,after digit#2,"{""note"":""after digit#2""}",1,0.016667,59.998886,1
Sergio_G01_CNS-DDJXM3V64,S01,OFFmed_OFFstim,20260309_163235,2026-03-09 16:32:42.382129,1,1,digit,POSTDIG_FIX2_OFF,157,2026-03-09 16:34:07.343553,84.957833,0.016705,,,,,,keyboard,after digit#2,"{""note"":""after digit#2"",""pd_used"":0}",1,0.016667,59.998886,1
Sergio_G01_CNS-DDJXM3V64,S01,OFFmed_OFFstim,20260309_163235,2026-03-09 16:32:42.382129,1,1,digit,DIGIT3_ON,143,2026-03-09 16:34:07.358905,84.974538,0.516691,,3,,,,keyboard,digit#3 shown,"{""value"":3,""note"":""digit#3 shown"",""pd_used"":1}",1,0.016667,59.998886,1
Sergio_G01_CNS-DDJXM3V64,S01,OFFmed_OFFstim,20260309_163235,2026-03-09 16:32:42.382129,1,1,digit,DIGIT3_OFF,148,2026-03-09 16:34:07.875605,85.491229,0.000000,,3,,,,keyboard,digit#3 off,"{""value"":3,""note"":""digit#3 off"",""pd_used"":0}",1,0.016667,59.998886,1
Sergio_G01_CNS-DDJXM3V64,S01,OFFmed_OFFstim,20260309_163235,2026-03-09 16:32:42.382129,1,1,digit,POSTDIG_FIX3_ON,153,2026-03-09 16:34:07.876568,85.491229,1.783428,,,,,,keyboard,after digit#3,"{""note"":""after digit#3""}",1,0.016667,59.998886,1
Sergio_G01_CNS-DDJXM3V64,S01,OFFmed_OFFstim,20260309_163235,2026-03-09 16:32:42.382129,1,1,digit,POSTDIG_FIX3_OFF,158,2026-03-09 16:34:09.659979,87.274658,0.016674,,,,,,keyboard,after digit#3,"{""note"":""after digit#3"",""pd_used"":0}",1,0.016667,59.998886,1
Sergio_G01_CNS-DDJXM3V64,S01,OFFmed_OFFstim,20260309_163235,2026-03-09 16:32:42.382129,1,1,digit,DIGIT4_ON,144,2026-03-09 16:34:09.676125,87.291332,0.516718,,2,,,,keyboard,digit#4 shown,"{""value"":2,""note"":""digit#4 shown"",""pd_used"":1}",1,0.016667,59.998886,1
Sergio_G01_CNS-DDJXM3V64,S01,OFFmed_OFFstim,20260309_163235,2026-03-09 16:32:42.382129,1,1,digit,DIGIT4_OFF,149,2026-03-09 16:34:10.192498,87.808050,0.000000,,2,,,,keyboard,digit#4 off,"{""value"":2,""note"":""digit#4 off"",""pd_used"":0}",1,0.016667,59.998886,1
Sergio_G01_CNS-DDJXM3V64,S01,OFFmed_OFFstim,20260309_163235,2026-03-09 16:32:42.382129,1,1,digit,POSTDIG_FIX4_ON,154,2026-03-09 16:34:10.193539,87.808050,1.666958,,,,,,keyboard,after digit#4,"{""note"":""after digit#4""}",1,0.016667,59.998886,1
Sergio_G01_CNS-DDJXM3V64,S01,OFFmed_OFFstim,20260309_163235,2026-03-09 16:32:42.382129,1,1,digit,POSTDIG_FIX4_OFF,159,2026-03-09 16:34:11.858972,89.475008,0.016473,,,,,,keyboard,after digit#4,"{""note"":""after digit#4"",""pd_used"":0}",1,0.016667,59.998886,1
Sergio_G01_CNS-DDJXM3V64,S01,OFFmed_OFFstim,20260309_163235,2026-03-09 16:32:42.382129,1,1,digit,DIGIT5_ON,145,2026-03-09 16:34:11.876039,89.491482,0.516700,,9,,,,keyboard,digit#5 shown,"{""value"":9,""note"":""digit#5 shown"",""pd_used"":1}",1,0.016667,59.998886,1
Sergio_G01_CNS-DDJXM3V64,S01,OFFmed_OFFstim,20260309_163235,2026-03-09 16:32:42.382129,1,1,digit,DIGIT5_OFF,150,2026-03-09 16:34:12.392976,90.008182,0.000000,,9,,,,keyboard,digit#5 off,"{""value"":9,""note"":""digit#5 off"",""pd_used"":0}",1,0.016667,59.998886,1
Sergio_G01_CNS-DDJXM3V64,S01,OFFmed_OFFstim,20260309_163235,2026-03-09 16:32:42.382129,1,1,digit,POSTDIG_FIX5_ON,155,2026-03-09 16:34:12.394417,90.008182,3.133539,,,,,,keyboard,after digit#5,"{""note"":""after digit#5""}",1,0.016667,59.998886,1
Sergio_G01_CNS-DDJXM3V64,S01,OFFmed_OFFstim,20260309_163235,2026-03-09 16:32:42.382129,1,1,digit,POSTDIG_FIX5_OFF,160,2026-03-09 16:34:15.526699,93.141720,0.016825,,,,,,keyboard,after digit#5,"{""note"":""after digit#5"",""pd_used"":0}",1,0.016667,59.998886,1
Sergio_G01_CNS-DDJXM3V64,S01,OFFmed_OFFstim,20260309_163235,2026-03-09 16:32:42.382129,1,1,distractor,DISTRACTOR_ON,50,2026-03-09 16:34:15.542715,93.158545,4.318599,,9+0=9,,,,keyboard,,"{""value"":""9+0=9"",""isCorrectTruth"":true,""trueSum"":9,""pd_used"":1}",1,0.016667,59.998886,1
Sergio_G01_CNS-DDJXM3V64,S01,OFFmed_OFFstim,20260309_163235,2026-03-09 16:32:42.382129,1,1,distractor,DISTRACTOR_ANS,51,2026-03-09 16:34:20.192273,97.477145,0.000000,4.318599,9+0=9,F,0,,keyboard,key= (False),"{""value"":""9+0=9"",""entered"":""F"",""rt"":4.3185992334038019,""correct"":0,""note"":""key= (False)"",""truth"":true,""trueSum"":9,""shownSum"":9,""a"":9,""b"":0}",1,0.016667,59.998886,1
Sergio_G01_CNS-DDJXM3V64,S01,OFFmed_OFFstim,20260309_163235,2026-03-09 16:32:42.382129,1,1,distractor,ANS_WRONG,200,2026-03-09 16:34:20.193413,97.477145,0.348159,,,,,,keyboard,,{},1,0.016667,59.998886,1
Sergio_G01_CNS-DDJXM3V64,S01,OFFmed_OFFstim,20260309_163235,2026-03-09 16:32:42.382129,1,1,distractor,DISTRACTOR_OFF,52,2026-03-09 16:34:20.211495,97.825304,0.000000,,,,,,keyboard,,"{""pd_used"":0}",1,0.016667,59.998886,1
Sergio_G01_CNS-DDJXM3V64,S01,OFFmed_OFFstim,20260309_163235,2026-03-09 16:32:42.382129,1,1,distractor,FIX2_ON,60,2026-03-09 16:34:20.212222,97.825304,3.450215,,,,,,keyboard,immediate after response,"{""note"":""immediate after response""}",1,0.016667,59.998886,1
Sergio_G01_CNS-DDJXM3V64,S01,OFFmed_OFFstim,20260309_163235,2026-03-09 16:32:42.382129,1,1,fix2,FIX2_OFF,61,2026-03-09 16:34:23.662450,101.275519,0.016738,,,,,,keyboard,,"{""pd_used"":0}",1,0.016667,59.998886,1
Sergio_G01_CNS-DDJXM3V64,S01,OFFmed_OFFstim,20260309_163235,2026-03-09 16:32:42.382129,1,1,probe,DIGIT_RECALL_LINE_1,161,2026-03-09 16:34:23.676324,101.292257,6.439504,,1,,,,keyboard,first recall question,"{""value"":1,""note"":""first recall question"",""pd_used"":1}",1,0.016667,59.998886,1
Sergio_G01_CNS-DDJXM3V64,S01,OFFmed_OFFstim,20260309_163235,2026-03-09 16:32:42.382129,1,1,probe,PROBE_DIGIT_OK_1,71,2026-03-09 16:34:31.041490,107.731761,0.944255,6.450415,slot#1,NaN,,,keyboard,probe_digit#1,"{""value"":""slot#1"",""entered"":null,""rt"":6.4504147998522967,""note"":""probe_digit#1""}",1,0.016667,59.998886,1
Sergio_G01_CNS-DDJXM3V64,S01,OFFmed_OFFstim,20260309_163235,2026-03-09 16:32:42.382129,1,1,probe,DIGIT1_OFF,146,2026-03-09 16:34:31.062060,108.676015,0.000000,,9,,,,keyboard,digit#1 off,"{""value"":9,""note"":""digit#1 off"",""pd_used"":0}",1,0.016667,59.998886,1
Sergio_G01_CNS-DDJXM3V64,S01,OFFmed_OFFstim,20260309_163235,2026-03-09 16:32:42.382129,1,1,probe,POSTDIG_FIX1_ON,151,2026-03-09 16:34:31.062942,108.676015,1.916834,,,,,,keyboard,after digit#1,"{""note"":""after digit#1""}",1,0.016667,59.998886,1
Sergio_G01_CNS-DDJXM3V64,S01,OFFmed_OFFstim,20260309_163235,2026-03-09 16:32:42.382129,1,1,probe,POSTDIG_FIX1_OFF,156,2026-03-09 16:34:32.977505,110.592849,0.033326,,,,,,keyboard,after digit#1,"{""note"":""after digit#1"",""pd_used"":0}",1,0.016667,59.998886,1
Sergio_G01_CNS-DDJXM3V64,S01,OFFmed_OFFstim,20260309_163235,2026-03-09 16:32:42.382129,1,1,probe,DIGIT_RECALL_LINE_2,162,2026-03-09 16:34:33.010982,110.626175,1.000986,,2,,,,keyboard,next recall question,"{""value"":2,""note"":""next recall question"",""pd_used"":1}",1,0.016667,59.998886,1
Sergio_G01_CNS-DDJXM3V64,S01,OFFmed_OFFstim,20260309_163235,2026-03-09 16:32:42.382129,1,1,probe,PROBE_DIGIT_OK_2,71,2026-03-09 16:34:34.319875,111.627161,0.332429,10.345815,slot#2,NaN,,,keyboard,probe_digit#2,"{""value"":""slot#2"",""entered"":null,""rt"":10.345815199892968,""note"":""probe_digit#2""}",1,0.016667,59.998886,1
Sergio_G01_CNS-DDJXM3V64,S01,OFFmed_OFFstim,20260309_163235,2026-03-09 16:32:42.382129,1,1,probe,DIGIT2_OFF,147,2026-03-09 16:34:34.344564,111.959590,0.000000,,9,,,,keyboard,digit#2 off,"{""value"":9,""note"":""digit#2 off"",""pd_used"":0}",1,0.016667,59.998886,1
Sergio_G01_CNS-DDJXM3V64,S01,OFFmed_OFFstim,20260309_163235,2026-03-09 16:32:42.382129,1,1,probe,POSTDIG_FIX2_ON,152,2026-03-09 16:34:34.345409,111.959590,1.966800,,,,,,keyboard,after digit#2,"{""note"":""after digit#2""}",1,0.016667,59.998886,1
Sergio_G01_CNS-DDJXM3V64,S01,OFFmed_OFFstim,20260309_163235,2026-03-09 16:32:42.382129,1,1,probe,POSTDIG_FIX2_OFF,157,2026-03-09 16:34:36.311203,113.926390,0.033332,,,,,,keyboard,after digit#2,"{""note"":""after digit#2"",""pd_used"":0}",1,0.016667,59.998886,1
Sergio_G01_CNS-DDJXM3V64,S01,OFFmed_OFFstim,20260309_163235,2026-03-09 16:32:42.382129,1,1,probe,DIGIT_RECALL_LINE_3,163,2026-03-09 16:34:36.344521,113.959722,0.570439,,3,,,,keyboard,next recall question,"{""value"":3,""note"":""next recall question"",""pd_used"":1}",1,0.016667,59.998886,1
Sergio_G01_CNS-DDJXM3V64,S01,OFFmed_OFFstim,20260309_163235,2026-03-09 16:32:42.382129,1,1,probe,PROBE_DIGIT_OK_3,71,2026-03-09 16:34:37.660456,114.530161,0.762945,13.248815,slot#3,NaN,,,keyboard,probe_digit#3,"{""value"":""slot#3"",""entered"":null,""rt"":13.248814899940044,""note"":""probe_digit#3""}",1,0.016667,59.998886,1
Sergio_G01_CNS-DDJXM3V64,S01,OFFmed_OFFstim,20260309_163235,2026-03-09 16:32:42.382129,1,1,probe,DIGIT3_OFF,148,2026-03-09 16:34:37.679369,115.293105,0.000000,,9,,,,keyboard,digit#3 off,"{""value"":9,""note"":""digit#3 off"",""pd_used"":0}",1,0.016667,59.998886,1
Sergio_G01_CNS-DDJXM3V64,S01,OFFmed_OFFstim,20260309_163235,2026-03-09 16:32:42.382129,1,1,probe,POSTDIG_FIX3_ON,153,2026-03-09 16:34:37.680201,115.293105,1.950186,,,,,,keyboard,after digit#3,"{""note"":""after digit#3""}",1,0.016667,59.998886,1
Sergio_G01_CNS-DDJXM3V64,S01,OFFmed_OFFstim,20260309_163235,2026-03-09 16:32:42.382129,1,1,probe,POSTDIG_FIX3_OFF,158,2026-03-09 16:34:39.627418,117.243292,0.033287,,,,,,keyboard,after digit#3,"{""note"":""after digit#3"",""pd_used"":0}",1,0.016667,59.998886,1
Sergio_G01_CNS-DDJXM3V64,S01,OFFmed_OFFstim,20260309_163235,2026-03-09 16:32:42.382129,1,1,probe,DIGIT_RECALL_LINE_4,164,2026-03-09 16:34:39.662233,117.276578,0.634162,,4,,,,keyboard,next recall question,"{""value"":4,""note"":""next recall question"",""pd_used"":1}",1,0.016667,59.998886,1
Sergio_G01_CNS-DDJXM3V64,S01,OFFmed_OFFstim,20260309_163235,2026-03-09 16:32:42.382129,1,1,probe,PROBE_DIGIT_OK_4,71,2026-03-09 16:34:41.200945,117.910741,0.915942,16.629395,slot#4,NaN,,,keyboard,probe_digit#4,"{""value"":""slot#4"",""entered"":null,""rt"":16.629394999938086,""note"":""probe_digit#4""}",1,0.016667,59.998886,1
Sergio_G01_CNS-DDJXM3V64,S01,OFFmed_OFFstim,20260309_163235,2026-03-09 16:32:42.382129,1,1,probe,DIGIT4_OFF,149,2026-03-09 16:34:41.212270,118.826683,0.000000,,9,,,,keyboard,digit#4 off,"{""value"":9,""note"":""digit#4 off"",""pd_used"":0}",1,0.016667,59.998886,1
Sergio_G01_CNS-DDJXM3V64,S01,OFFmed_OFFstim,20260309_163235,2026-03-09 16:32:42.382129,1,1,probe,POSTDIG_FIX4_ON,154,2026-03-09 16:34:41.213668,118.826683,1.550135,,,,,,keyboard,after digit#4,"{""note"":""after digit#4""}",1,0.016667,59.998886,1
Sergio_G01_CNS-DDJXM3V64,S01,OFFmed_OFFstim,20260309_163235,2026-03-09 16:32:42.382129,1,1,probe,POSTDIG_FIX4_OFF,159,2026-03-09 16:34:42.761255,120.376818,0.033322,,,,,,keyboard,after digit#4,"{""note"":""after digit#4"",""pd_used"":0}",1,0.016667,59.998886,1
Sergio_G01_CNS-DDJXM3V64,S01,OFFmed_OFFstim,20260309_163235,2026-03-09 16:32:42.382129,1,1,probe,DIGIT_RECALL_LINE_5,165,2026-03-09 16:34:42.794862,120.410140,0.723193,,5,,,,keyboard,next recall question,"{""value"":5,""note"":""next recall question"",""pd_used"":1}",1,0.016667,59.998886,1
Sergio_G01_CNS-DDJXM3V64,S01,OFFmed_OFFstim,20260309_163235,2026-03-09 16:32:42.382129,1,1,probe,PROBE_DIGIT_OK_5,71,2026-03-09 16:34:44.160743,121.133333,0.660204,19.851987,slot#5,NaN,,,keyboard,probe_digit#5,"{""value"":""slot#5"",""entered"":null,""rt"":19.851987499976531,""note"":""probe_digit#5""}",1,0.016667,59.998886,1
Sergio_G01_CNS-DDJXM3V64,S01,OFFmed_OFFstim,20260309_163235,2026-03-09 16:32:42.382129,1,1,probe,DIGIT5_OFF,150,2026-03-09 16:34:44.179173,121.793537,0.000000,,9,,,,keyboard,digit#5 off,"{""value"":9,""note"":""digit#5 off"",""pd_used"":0}",1,0.016667,59.998886,1
Sergio_G01_CNS-DDJXM3V64,S01,OFFmed_OFFstim,20260309_163235,2026-03-09 16:32:42.382129,1,1,probe,POSTDIG_FIX5_ON,155,2026-03-09 16:34:44.180395,121.793537,3.500273,,,,,,keyboard,after digit#5,"{""note"":""after digit#5""}",1,0.016667,59.998886,1
Sergio_G01_CNS-DDJXM3V64,S01,OFFmed_OFFstim,20260309_163235,2026-03-09 16:32:42.382129,1,1,probe,POSTDIG_FIX5_OFF,160,2026-03-09 16:34:47.678570,125.293811,0.020321,,,,,,keyboard,after digit#5,"{""note"":""after digit#5"",""pd_used"":0}",1,0.016667,59.998886,1
Sergio_G01_CNS-DDJXM3V64,S01,OFFmed_OFFstim,20260309_163235,2026-03-09 16:32:42.382129,1,1,probe,PROBE_DONE,73,2026-03-09 16:34:47.696405,125.314131,0.000871,,,,,,keyboard,probe complete,"{""value"":"""",""note"":""probe complete""}",1,0.016667,59.998886,1
Sergio_G01_CNS-DDJXM3V64,S01,OFFmed_OFFstim,20260309_163235,2026-03-09 16:32:42.382129,1,1,probe,TRIAL_END,21,2026-03-09 16:34:47.697131,125.315002,0.000861,,,,,,keyboard,,{},1,0.016667,59.998886,1
Sergio_G01_CNS-DDJXM3V64,S01,OFFmed_OFFstim,20260309_163235,2026-03-09 16:32:42.382129,1,1,probe,BLOCK_END,11,2026-03-09 16:34:47.698006,125.315863,0.344823,,,,,,keyboard,,{},1,0.016667,59.998886,1
Sergio_G01_CNS-DDJXM3V64,S01,OFFmed_OFFstim,20260309_163235,2026-03-09 16:32:42.382129,1,1,probe,SESSION_END,3,2026-03-09 16:34:48.043207,125.660685,NaN,,,,,,keyboard,,{},1,0.016667,59.998886,1
