file_version,subject,condition,session,task_start_time,block,trial,phase,event_name,event_code,wall_clock,t_rel_sec,duration_to_next,rt,value_shown,entered_value,correct,key_name,device,note,json,screen_index,ifi,refresh_hz,pd_used
Sergio_G01_CNS-LLF5HT7Y0,cpeeg01,offmed_offstim,20260312_133400,34:36.6,NaN,NaN,,MIC_NOISEFLOOR,6,34:41.5,4.881994,7.679735,,,,,,keyboard,,{},2,NaN,NaN,1
Sergio_G01_CNS-LLF5HT7Y0,cpeeg01,offmed_offstim,20260312_133400,34:36.6,NaN,NaN,,MIC_REC_SPEECH,7,34:49.1,12.561729,6.814412,,,,,,keyboard,,{},2,NaN,NaN,1
Sergio_G01_CNS-LLF5HT7Y0,cpeeg01,offmed_offstim,20260312_133400,34:36.6,NaN,NaN,,SESSION_START,1,35:15.7,39.16257,0.009345,,,,,,keyboard,,{},2,0.008333,120,1
Sergio_G01_CNS-LLF5HT7Y0,cpeeg01,offmed_offstim,20260312_133400,34:36.6,2,NaN,,BLOCK_START,10,35:15.7,39.171915,0.082001,,,,,,keyboard,,{},2,0.008333,120,1
Sergio_G01_CNS-LLF5HT7Y0,cpeeg01,offmed_offstim,20260312_133400,34:36.6,2,0,reading,START_PAGE_ON,4,35:15.9,39.253916,0.068109,,,,,,keyboard,,"{""pd_used"":0}",2,0.008333,120,1
Sergio_G01_CNS-LLF5HT7Y0,cpeeg01,offmed_offstim,20260312_133400,34:36.6,2,0,reading,START_PAGE_ON,4,35:15.9,39.253916,170.158473,,,,,,keyboard,,"{""pd_used"":0}",2,0.008333,120,1
Sergio_G01_CNS-LLF5HT7Y0,cpeeg01,offmed_offstim,20260312_133400,34:36.6,2,0,reading,START_PAGE_ON,4,35:15.9,39.253916,170.540494,,,,,,keyboard,,"{""pd_used"":0}",2,0.008333,120,1
Sergio_G01_CNS-LLF5HT7Y0,cpeeg01,offmed_offstim,20260312_133400,34:36.6,2,0,reading,READING_START,23,38:06.4,209.79441,0.080069,,,,,,keyboard,,{},2,0.008333,120,1
Sergio_G01_CNS-LLF5HT7Y0,cpeeg01,offmed_offstim,20260312_133400,34:36.6,2,0,reading,DIGIT_READ1_ON,101,38:06.5,209.874479,1.324273,,2,,,,keyboard,digit#1 shown,"{""value"":2,""note"":""digit#1 shown"",""pd_used"":1}",2,0.008333,120,1
Sergio_G01_CNS-LLF5HT7Y0,cpeeg01,offmed_offstim,20260312_133400,34:36.6,2,0,reading,PROBE_TIMEOUT,72,38:07.8,211.198752,0.00414,,,,,,keyboard,digits_entered=,"{""note"":""digits_entered=""}",2,0.008333,120,1
Sergio_G01_CNS-LLF5HT7Y0,cpeeg01,offmed_offstim,20260312_133400,34:36.6,2,0,reading,READING_END,24,38:07.8,211.202892,0.058482,,,,,,keyboard,,{},2,0.008333,120,1
Sergio_G01_CNS-LLF5HT7Y0,cpeeg01,offmed_offstim,20260312_133400,34:36.6,2,0,reading,START_PAGE_ON,4,38:07.9,211.261374,0.059212,,,,,,keyboard,,"{""pd_used"":0}",2,0.008333,120,1
Sergio_G01_CNS-LLF5HT7Y0,cpeeg01,offmed_offstim,20260312_133400,34:36.6,2,0,reading,START_PAGE_ON,4,38:07.9,211.261374,6.923203,,,,,,keyboard,,"{""pd_used"":0}",2,0.008333,120,1
Sergio_G01_CNS-LLF5HT7Y0,cpeeg01,offmed_offstim,20260312_133400,34:36.6,2,0,reading,START_PAGE_ON,4,38:07.9,211.261374,7.299909,,,,,,keyboard,,"{""pd_used"":0}",2,0.008333,120,1
Sergio_G01_CNS-LLF5HT7Y0,cpeeg01,offmed_offstim,20260312_133400,34:36.6,2,1,reading,TRIAL_CHANGE,22,38:15.1,218.561283,0.00834,,,,,,keyboard,trial transition,"{""note"":""trial transition""}",2,0.008333,120,1
Sergio_G01_CNS-LLF5HT7Y0,cpeeg01,offmed_offstim,20260312_133400,34:36.6,2,1,reading,TRIAL_START,20,38:15.1,218.569623,0.058297,,,,,,keyboard,,{},2,0.008333,120,1
Sergio_G01_CNS-LLF5HT7Y0,cpeeg01,offmed_offstim,20260312_133400,34:36.6,2,1,fix1,FIX1_ON,30,38:15.2,218.62792,3.520699,,,,,,keyboard,,"{""pd_used"":0}",2,0.008333,120,1
Sergio_G01_CNS-LLF5HT7Y0,cpeeg01,offmed_offstim,20260312_133400,34:36.6,2,1,fix1,FIX1_OFF,31,38:18.8,222.148618,0.064037,,,,,,keyboard,,"{""pd_used"":0}",2,0.008333,120,1
Sergio_G01_CNS-LLF5HT7Y0,cpeeg01,offmed_offstim,20260312_133400,34:36.6,2,1,digit,DIGIT1_ON,141,38:18.8,222.212656,0.559474,,8,,,,keyboard,digit#1 shown,"{""value"":8,""note"":""digit#1 shown"",""pd_used"":1}",2,0.008333,120,1
Sergio_G01_CNS-LLF5HT7Y0,cpeeg01,offmed_offstim,20260312_133400,34:36.6,2,1,digit,DIGIT1_OFF,146,38:19.4,222.77213,0,,8,,,,keyboard,digit#1 off,"{""value"":8,""note"":""digit#1 off"",""pd_used"":0}",2,0.008333,120,1
Sergio_G01_CNS-LLF5HT7Y0,cpeeg01,offmed_offstim,20260312_133400,34:36.6,2,1,digit,POSTDIG_FIX1_ON,151,38:19.4,222.77213,1.625853,,,,,,keyboard,after digit#1,"{""note"":""after digit#1""}",2,0.008333,120,1
Sergio_G01_CNS-LLF5HT7Y0,cpeeg01,offmed_offstim,20260312_133400,34:36.6,2,1,digit,POSTDIG_FIX1_OFF,156,38:21.0,224.397983,0.059025,,,,,,keyboard,after digit#1,"{""note"":""after digit#1"",""pd_used"":0}",2,0.008333,120,1
Sergio_G01_CNS-LLF5HT7Y0,cpeeg01,offmed_offstim,20260312_133400,34:36.6,2,1,digit,DIGIT2_ON,142,38:21.1,224.457008,0.558526,,3,,,,keyboard,digit#2 shown,"{""value"":3,""note"":""digit#2 shown"",""pd_used"":1}",2,0.008333,120,1
Sergio_G01_CNS-LLF5HT7Y0,cpeeg01,offmed_offstim,20260312_133400,34:36.6,2,1,digit,DIGIT2_OFF,147,38:21.6,225.015534,0,,3,,,,keyboard,digit#2 off,"{""value"":3,""note"":""digit#2 off"",""pd_used"":0}",2,0.008333,120,1
Sergio_G01_CNS-LLF5HT7Y0,cpeeg01,offmed_offstim,20260312_133400,34:36.6,2,1,digit,POSTDIG_FIX2_ON,152,38:21.6,225.015534,1.842268,,,,,,keyboard,after digit#2,"{""note"":""after digit#2""}",2,0.008333,120,1
Sergio_G01_CNS-LLF5HT7Y0,cpeeg01,offmed_offstim,20260312_133400,34:36.6,2,1,digit,POSTDIG_FIX2_OFF,157,38:23.5,226.857802,0.057689,,,,,,keyboard,after digit#2,"{""note"":""after digit#2"",""pd_used"":0}",2,0.008333,120,1
Sergio_G01_CNS-LLF5HT7Y0,cpeeg01,offmed_offstim,20260312_133400,34:36.6,2,1,digit,DIGIT3_ON,143,38:23.5,226.915491,0.557497,,0,,,,keyboard,digit#3 shown,"{""value"":0,""note"":""digit#3 shown"",""pd_used"":1}",2,0.008333,120,1
Sergio_G01_CNS-LLF5HT7Y0,cpeeg01,offmed_offstim,20260312_133400,34:36.6,2,1,digit,DIGIT3_OFF,148,38:24.1,227.472988,0,,0,,,,keyboard,digit#3 off,"{""value"":0,""note"":""digit#3 off"",""pd_used"":0}",2,0.008333,120,1
Sergio_G01_CNS-LLF5HT7Y0,cpeeg01,offmed_offstim,20260312_133400,34:36.6,2,1,digit,POSTDIG_FIX3_ON,153,38:24.1,227.472988,1.851037,,,,,,keyboard,after digit#3,"{""note"":""after digit#3""}",2,0.008333,120,1
Sergio_G01_CNS-LLF5HT7Y0,cpeeg01,offmed_offstim,20260312_133400,34:36.6,2,1,digit,POSTDIG_FIX3_OFF,158,38:25.9,229.324025,0.061642,,,,,,keyboard,after digit#3,"{""note"":""after digit#3"",""pd_used"":0}",2,0.008333,120,1
Sergio_G01_CNS-LLF5HT7Y0,cpeeg01,offmed_offstim,20260312_133400,34:36.6,2,1,digit,DIGIT4_ON,144,38:26.0,229.385667,0.561388,,9,,,,keyboard,digit#4 shown,"{""value"":9,""note"":""digit#4 shown"",""pd_used"":1}",2,0.008333,120,1
Sergio_G01_CNS-LLF5HT7Y0,cpeeg01,offmed_offstim,20260312_133400,34:36.6,2,1,digit,DIGIT4_OFF,149,38:26.6,229.947055,0,,9,,,,keyboard,digit#4 off,"{""value"":9,""note"":""digit#4 off"",""pd_used"":0}",2,0.008333,120,1
Sergio_G01_CNS-LLF5HT7Y0,cpeeg01,offmed_offstim,20260312_133400,34:36.6,2,1,digit,POSTDIG_FIX4_ON,154,38:26.6,229.947055,2.058214,,,,,,keyboard,after digit#4,"{""note"":""after digit#4""}",2,0.008333,120,1
Sergio_G01_CNS-LLF5HT7Y0,cpeeg01,offmed_offstim,20260312_133400,34:36.6,2,1,digit,POSTDIG_FIX4_OFF,159,38:28.6,232.005269,0.059611,,,,,,keyboard,after digit#4,"{""note"":""after digit#4"",""pd_used"":0}",2,0.008333,120,1
Sergio_G01_CNS-LLF5HT7Y0,cpeeg01,offmed_offstim,20260312_133400,34:36.6,2,1,digit,DIGIT5_ON,145,38:28.7,232.06488,0.559097,,1,,,,keyboard,digit#5 shown,"{""value"":1,""note"":""digit#5 shown"",""pd_used"":1}",2,0.008333,120,1
Sergio_G01_CNS-LLF5HT7Y0,cpeeg01,offmed_offstim,20260312_133400,34:36.6,2,1,digit,DIGIT5_OFF,150,38:29.2,232.623977,0,,1,,,,keyboard,digit#5 off,"{""value"":1,""note"":""digit#5 off"",""pd_used"":0}",2,0.008333,120,1
Sergio_G01_CNS-LLF5HT7Y0,cpeeg01,offmed_offstim,20260312_133400,34:36.6,2,1,digit,POSTDIG_FIX5_ON,155,38:29.2,232.623977,3.392954,,,,,,keyboard,after digit#5,"{""note"":""after digit#5""}",2,0.008333,120,1
Sergio_G01_CNS-LLF5HT7Y0,cpeeg01,offmed_offstim,20260312_133400,34:36.6,2,1,digit,POSTDIG_FIX5_OFF,160,38:32.6,236.016931,0.062587,,,,,,keyboard,after digit#5,"{""note"":""after digit#5"",""pd_used"":0}",2,0.008333,120,1
Sergio_G01_CNS-LLF5HT7Y0,cpeeg01,offmed_offstim,20260312_133400,34:36.6,2,1,distractor,DISTRACTOR_ON,50,38:32.7,236.079518,20.074701,,8+8=16,,,,keyboard,,"{""value"":""8+8=16"",""isCorrectTruth"":true,""trueSum"":16,""pd_used"":1}",2,0.008333,120,1
Sergio_G01_CNS-LLF5HT7Y0,cpeeg01,offmed_offstim,20260312_133400,34:36.6,2,1,distractor,DISTRACTOR_OFF,52,38:52.8,256.15422,0,,,,,,keyboard,,"{""pd_used"":0}",2,0.008333,120,1
Sergio_G01_CNS-LLF5HT7Y0,cpeeg01,offmed_offstim,20260312_133400,34:36.6,2,1,distractor,FIX2_ON,60,38:52.8,256.15422,3.341882,,,,,,keyboard,deadline reached,"{""note"":""deadline reached""}",2,0.008333,120,1
Sergio_G01_CNS-LLF5HT7Y0,cpeeg01,offmed_offstim,20260312_133400,34:36.6,2,1,fix2,FIX2_OFF,61,38:56.1,259.496102,0.060695,,,,,,keyboard,,"{""pd_used"":0}",2,0.008333,120,1
Sergio_G01_CNS-LLF5HT7Y0,cpeeg01,offmed_offstim,20260312_133400,34:36.6,2,1,probe,DIGIT_RECALL_LINE_1,161,38:56.2,259.556797,12.133419,,1,,,,keyboard,first recall question,"{""value"":1,""note"":""first recall question"",""pd_used"":1}",2,0.008333,120,1
Sergio_G01_CNS-LLF5HT7Y0,cpeeg01,offmed_offstim,20260312_133400,34:36.6,2,1,probe,PROBE_DIGIT_OK_1,71,39:08.8,271.690216,0.572772,12.146879,slot#1,NaN,,,keyboard,probe_digit#1,"{""value"":""slot#1"",""entered"":null,""rt"":12.146879000007175,""note"":""probe_digit#1""}",2,0.008333,120,1
Sergio_G01_CNS-LLF5HT7Y0,cpeeg01,offmed_offstim,20260312_133400,34:36.6,2,1,probe,DIGIT1_OFF,146,39:08.9,272.262988,0,,1,,,,keyboard,digit#1 off,"{""value"":1,""note"":""digit#1 off"",""pd_used"":0}",2,0.008333,120,1
Sergio_G01_CNS-LLF5HT7Y0,cpeeg01,offmed_offstim,20260312_133400,34:36.6,2,1,probe,POSTDIG_FIX1_ON,151,39:08.9,272.262988,1.775036,,,,,,keyboard,after digit#1,"{""note"":""after digit#1""}",2,0.008333,120,1
Sergio_G01_CNS-LLF5HT7Y0,cpeeg01,offmed_offstim,20260312_133400,34:36.6,2,1,probe,POSTDIG_FIX1_OFF,156,39:10.7,274.038023,0.068947,,,,,,keyboard,after digit#1,"{""note"":""after digit#1"",""pd_used"":0}",2,0.008333,120,1
Sergio_G01_CNS-LLF5HT7Y0,cpeeg01,offmed_offstim,20260312_133400,34:36.6,2,1,probe,DIGIT_RECALL_LINE_2,162,39:10.7,274.10697,4.320311,,2,,,,keyboard,next recall question,"{""value"":2,""note"":""next recall question"",""pd_used"":1}",2,0.008333,120,1
Sergio_G01_CNS-LLF5HT7Y0,cpeeg01,offmed_offstim,20260312_133400,34:36.6,2,1,probe,PROBE_DIGIT_OK_2,71,39:15.4,278.427281,0.411922,18.883944,slot#2,NaN,,,keyboard,probe_digit#2,"{""value"":""slot#2"",""entered"":null,""rt"":18.883943900000304,""note"":""probe_digit#2""}",2,0.008333,120,1
Sergio_G01_CNS-LLF5HT7Y0,cpeeg01,offmed_offstim,20260312_133400,34:36.6,2,1,probe,DIGIT2_OFF,147,39:15.5,278.839203,0,,1,,,,keyboard,digit#2 off,"{""value"":1,""note"":""digit#2 off"",""pd_used"":0}",2,0.008333,120,1
Sergio_G01_CNS-LLF5HT7Y0,cpeeg01,offmed_offstim,20260312_133400,34:36.6,2,1,probe,POSTDIG_FIX2_ON,152,39:15.5,278.839203,1.731984,,,,,,keyboard,after digit#2,"{""note"":""after digit#2""}",2,0.008333,120,1
Sergio_G01_CNS-LLF5HT7Y0,cpeeg01,offmed_offstim,20260312_133400,34:36.6,2,1,probe,POSTDIG_FIX2_OFF,157,39:17.2,280.571187,0.061748,,,,,,keyboard,after digit#2,"{""note"":""after digit#2"",""pd_used"":0}",2,0.008333,120,1
Sergio_G01_CNS-LLF5HT7Y0,cpeeg01,offmed_offstim,20260312_133400,34:36.6,2,1,probe,DIGIT_RECALL_LINE_3,163,39:17.2,280.632935,7.486572,,3,,,,keyboard,next recall question,"{""value"":3,""note"":""next recall question"",""pd_used"":1}",2,0.008333,120,1
Sergio_G01_CNS-LLF5HT7Y0,cpeeg01,offmed_offstim,20260312_133400,34:36.6,2,1,probe,PROBE_DIGIT_OK_3,71,39:25.1,288.119507,0.416837,28.57617,slot#3,NaN,,,keyboard,probe_digit#3,"{""value"":""slot#3"",""entered"":null,""rt"":28.576169900014065,""note"":""probe_digit#3""}",2,0.008333,120,1
Sergio_G01_CNS-LLF5HT7Y0,cpeeg01,offmed_offstim,20260312_133400,34:36.6,2,1,probe,DIGIT3_OFF,148,39:25.2,288.536344,0,,1,,,,keyboard,digit#3 off,"{""value"":1,""note"":""digit#3 off"",""pd_used"":0}",2,0.008333,120,1
Sergio_G01_CNS-LLF5HT7Y0,cpeeg01,offmed_offstim,20260312_133400,34:36.6,2,1,probe,POSTDIG_FIX3_ON,153,39:25.2,288.536344,1.871351,,,,,,keyboard,after digit#3,"{""note"":""after digit#3""}",2,0.008333,120,1
Sergio_G01_CNS-LLF5HT7Y0,cpeeg01,offmed_offstim,20260312_133400,34:36.6,2,1,probe,POSTDIG_FIX3_OFF,158,39:27.0,290.407695,0.063765,,,,,,keyboard,after digit#3,"{""note"":""after digit#3"",""pd_used"":0}",2,0.008333,120,1
Sergio_G01_CNS-LLF5HT7Y0,cpeeg01,offmed_offstim,20260312_133400,34:36.6,2,1,probe,DIGIT_RECALL_LINE_4,164,39:27.1,290.47146,4.702197,,4,,,,keyboard,next recall question,"{""value"":4,""note"":""next recall question"",""pd_used"":1}",2,0.008333,120,1
Sergio_G01_CNS-LLF5HT7Y0,cpeeg01,offmed_offstim,20260312_133400,34:36.6,2,1,probe,PROBE_DIGIT_OK_4,71,39:32.2,295.173657,0.457311,35.63032,slot#4,NaN,,,keyboard,probe_digit#4,"{""value"":""slot#4"",""entered"":null,""rt"":35.63031979999505,""note"":""probe_digit#4""}",2,0.008333,120,1
Sergio_G01_CNS-LLF5HT7Y0,cpeeg01,offmed_offstim,20260312_133400,34:36.6,2,1,probe,DIGIT4_OFF,149,39:32.2,295.630968,0,,1,,,,keyboard,digit#4 off,"{""value"":1,""note"":""digit#4 off"",""pd_used"":0}",2,0.008333,120,1
Sergio_G01_CNS-LLF5HT7Y0,cpeeg01,offmed_offstim,20260312_133400,34:36.6,2,1,probe,POSTDIG_FIX4_ON,154,39:32.3,295.630968,1.868176,,,,,,keyboard,after digit#4,"{""note"":""after digit#4""}",2,0.008333,120,1
Sergio_G01_CNS-LLF5HT7Y0,cpeeg01,offmed_offstim,20260312_133400,34:36.6,2,1,probe,POSTDIG_FIX4_OFF,159,39:34.1,297.499144,0.06334,,,,,,keyboard,after digit#4,"{""note"":""after digit#4"",""pd_used"":0}",2,0.008333,120,1
Sergio_G01_CNS-LLF5HT7Y0,cpeeg01,offmed_offstim,20260312_133400,34:36.6,2,1,probe,DIGIT_RECALL_LINE_5,165,39:34.2,297.562484,5.48209,,5,,,,keyboard,next recall question,"{""value"":5,""note"":""next recall question"",""pd_used"":1}",2,0.008333,120,1
Sergio_G01_CNS-LLF5HT7Y0,cpeeg01,offmed_offstim,20260312_133400,34:36.6,2,1,probe,PROBE_DIGIT_OK_5,71,39:40.0,303.044574,0.469349,43.501237,slot#5,NaN,,,keyboard,probe_digit#5,"{""value"":""slot#5"",""entered"":null,""rt"":43.501237299991772,""note"":""probe_digit#5""}",2,0.008333,120,1
Sergio_G01_CNS-LLF5HT7Y0,cpeeg01,offmed_offstim,20260312_133400,34:36.6,2,1,probe,DIGIT5_OFF,150,39:40.1,303.513924,0,,1,,,,keyboard,digit#5 off,"{""value"":1,""note"":""digit#5 off"",""pd_used"":0}",2,0.008333,120,1
Sergio_G01_CNS-LLF5HT7Y0,cpeeg01,offmed_offstim,20260312_133400,34:36.6,2,1,probe,POSTDIG_FIX5_ON,155,39:40.1,303.513924,3.212089,,,,,,keyboard,after digit#5,"{""note"":""after digit#5""}",2,0.008333,120,1
Sergio_G01_CNS-LLF5HT7Y0,cpeeg01,offmed_offstim,20260312_133400,34:36.6,2,1,probe,POSTDIG_FIX5_OFF,160,39:43.3,306.726013,0.055191,,,,,,keyboard,after digit#5,"{""note"":""after digit#5"",""pd_used"":0}",2,0.008333,120,1
Sergio_G01_CNS-LLF5HT7Y0,cpeeg01,offmed_offstim,20260312_133400,34:36.6,2,1,probe,PROBE_DONE,73,39:43.4,306.781204,0.002549,,,,,,keyboard,probe complete,"{""value"":"""",""note"":""probe complete""}",2,0.008333,120,1
Sergio_G01_CNS-LLF5HT7Y0,cpeeg01,offmed_offstim,20260312_133400,34:36.6,2,1,probe,TRIAL_END,21,39:43.4,306.783753,0.045109,,,,,,keyboard,,{},2,0.008333,120,1
Sergio_G01_CNS-LLF5HT7Y0,cpeeg01,offmed_offstim,20260312_133400,34:36.6,2,2,probe,TRIAL_CHANGE,22,39:43.4,306.828862,0.002734,,,,,,keyboard,trial transition,"{""note"":""trial transition""}",2,0.008333,120,1
Sergio_G01_CNS-LLF5HT7Y0,cpeeg01,offmed_offstim,20260312_133400,34:36.6,2,2,probe,TRIAL_START,20,39:43.4,306.831597,0.058547,,,,,,keyboard,,{},2,0.008333,120,1
Sergio_G01_CNS-LLF5HT7Y0,cpeeg01,offmed_offstim,20260312_133400,34:36.6,2,2,fix1,FIX1_ON,30,39:43.5,306.890143,3.187807,,,,,,keyboard,,"{""pd_used"":0}",2,0.008333,120,1
Sergio_G01_CNS-LLF5HT7Y0,cpeeg01,offmed_offstim,20260312_133400,34:36.6,2,2,fix1,FIX1_OFF,31,39:46.7,310.07795,0.056788,,,,,,keyboard,,"{""pd_used"":0}",2,0.008333,120,1
Sergio_G01_CNS-LLF5HT7Y0,cpeeg01,offmed_offstim,20260312_133400,34:36.6,2,2,digit,DIGIT1_ON,141,39:46.8,310.134738,0.55541,,1,,,,keyboard,digit#1 shown,"{""value"":1,""note"":""digit#1 shown"",""pd_used"":1}",2,0.008333,120,1
Sergio_G01_CNS-LLF5HT7Y0,cpeeg01,offmed_offstim,20260312_133400,34:36.6,2,2,digit,DIGIT1_OFF,146,39:47.3,310.690148,0,,1,,,,keyboard,digit#1 off,"{""value"":1,""note"":""digit#1 off"",""pd_used"":0}",2,0.008333,120,1
Sergio_G01_CNS-LLF5HT7Y0,cpeeg01,offmed_offstim,20260312_133400,34:36.6,2,2,digit,POSTDIG_FIX1_ON,151,39:47.3,310.690148,1.655659,,,,,,keyboard,after digit#1,"{""note"":""after digit#1""}",2,0.008333,120,1
Sergio_G01_CNS-LLF5HT7Y0,cpeeg01,offmed_offstim,20260312_133400,34:36.6,2,2,digit,POSTDIG_FIX1_OFF,156,39:49.0,312.345807,0.057649,,,,,,keyboard,after digit#1,"{""note"":""after digit#1"",""pd_used"":0}",2,0.008333,120,1
Sergio_G01_CNS-LLF5HT7Y0,cpeeg01,offmed_offstim,20260312_133400,34:36.6,2,2,digit,DIGIT2_ON,142,39:49.0,312.403456,0.554834,,5,,,,keyboard,digit#2 shown,"{""value"":5,""note"":""digit#2 shown"",""pd_used"":1}",2,0.008333,120,1
Sergio_G01_CNS-LLF5HT7Y0,cpeeg01,offmed_offstim,20260312_133400,34:36.6,2,2,digit,DIGIT2_OFF,147,39:49.6,312.95829,0,,5,,,,keyboard,digit#2 off,"{""value"":5,""note"":""digit#2 off"",""pd_used"":0}",2,0.008333,120,1
Sergio_G01_CNS-LLF5HT7Y0,cpeeg01,offmed_offstim,20260312_133400,34:36.6,2,2,digit,POSTDIG_FIX2_ON,152,39:49.6,312.95829,1.957278,,,,,,keyboard,after digit#2,"{""note"":""after digit#2""}",2,0.008333,120,1
Sergio_G01_CNS-LLF5HT7Y0,cpeeg01,offmed_offstim,20260312_133400,34:36.6,2,2,digit,POSTDIG_FIX2_OFF,157,39:51.5,314.915568,0.056869,,,,,,keyboard,after digit#2,"{""note"":""after digit#2"",""pd_used"":0}",2,0.008333,120,1
Sergio_G01_CNS-LLF5HT7Y0,cpeeg01,offmed_offstim,20260312_133400,34:36.6,2,2,digit,DIGIT3_ON,143,39:51.6,314.972438,0.556336,,1,,,,keyboard,digit#3 shown,"{""value"":1,""note"":""digit#3 shown"",""pd_used"":1}",2,0.008333,120,1
Sergio_G01_CNS-LLF5HT7Y0,cpeeg01,offmed_offstim,20260312_133400,34:36.6,2,2,digit,DIGIT3_OFF,148,39:52.1,315.528774,0,,1,,,,keyboard,digit#3 off,"{""value"":1,""note"":""digit#3 off"",""pd_used"":0}",2,0.008333,120,1
Sergio_G01_CNS-LLF5HT7Y0,cpeeg01,offmed_offstim,20260312_133400,34:36.6,2,2,digit,POSTDIG_FIX3_ON,153,39:52.1,315.528774,1.724931,,,,,,keyboard,after digit#3,"{""note"":""after digit#3""}",2,0.008333,120,1
Sergio_G01_CNS-LLF5HT7Y0,cpeeg01,offmed_offstim,20260312_133400,34:36.6,2,2,digit,POSTDIG_FIX3_OFF,158,39:53.9,317.253705,0.057712,,,,,,keyboard,after digit#3,"{""note"":""after digit#3"",""pd_used"":0}",2,0.008333,120,1
Sergio_G01_CNS-LLF5HT7Y0,cpeeg01,offmed_offstim,20260312_133400,34:36.6,2,2,digit,DIGIT4_ON,144,39:53.9,317.311418,0.556695,,7,,,,keyboard,digit#4 shown,"{""value"":7,""note"":""digit#4 shown"",""pd_used"":1}",2,0.008333,120,1
Sergio_G01_CNS-LLF5HT7Y0,cpeeg01,offmed_offstim,20260312_133400,34:36.6,2,2,digit,DIGIT4_OFF,149,39:54.5,317.868113,0,,7,,,,keyboard,digit#4 off,"{""value"":7,""note"":""digit#4 off"",""pd_used"":0}",2,0.008333,120,1
Sergio_G01_CNS-LLF5HT7Y0,cpeeg01,offmed_offstim,20260312_133400,34:36.6,2,2,digit,POSTDIG_FIX4_ON,154,39:54.5,317.868113,1.946534,,,,,,keyboard,after digit#4,"{""note"":""after digit#4""}",2,0.008333,120,1
Sergio_G01_CNS-LLF5HT7Y0,cpeeg01,offmed_offstim,20260312_133400,34:36.6,2,2,digit,POSTDIG_FIX4_OFF,159,39:56.4,319.814647,0.055936,,,,,,keyboard,after digit#4,"{""note"":""after digit#4"",""pd_used"":0}",2,0.008333,120,1
Sergio_G01_CNS-LLF5HT7Y0,cpeeg01,offmed_offstim,20260312_133400,34:36.6,2,2,digit,DIGIT5_ON,145,39:56.5,319.870584,0.55539,,7,,,,keyboard,digit#5 shown,"{""value"":7,""note"":""digit#5 shown"",""pd_used"":1}",2,0.008333,120,1
Sergio_G01_CNS-LLF5HT7Y0,cpeeg01,offmed_offstim,20260312_133400,34:36.6,2,2,digit,DIGIT5_OFF,150,39:57.0,320.425973,0,,7,,,,keyboard,digit#5 off,"{""value"":7,""note"":""digit#5 off"",""pd_used"":0}",2,0.008333,120,1
Sergio_G01_CNS-LLF5HT7Y0,cpeeg01,offmed_offstim,20260312_133400,34:36.6,2,2,digit,POSTDIG_FIX5_ON,155,39:57.0,320.425973,3.368808,,,,,,keyboard,after digit#5,"{""note"":""after digit#5""}",2,0.008333,120,1
Sergio_G01_CNS-LLF5HT7Y0,cpeeg01,offmed_offstim,20260312_133400,34:36.6,2,2,digit,POSTDIG_FIX5_OFF,160,40:00.4,323.794782,0.06232,,,,,,keyboard,after digit#5,"{""note"":""after digit#5"",""pd_used"":0}",2,0.008333,120,1
Sergio_G01_CNS-LLF5HT7Y0,cpeeg01,offmed_offstim,20260312_133400,34:36.6,2,2,distractor,DISTRACTOR_ON,50,40:00.5,323.857102,20.05195,,0+1=1,,,,keyboard,,"{""value"":""0+1=1"",""isCorrectTruth"":true,""trueSum"":1,""pd_used"":1}",2,0.008333,120,1
Sergio_G01_CNS-LLF5HT7Y0,cpeeg01,offmed_offstim,20260312_133400,34:36.6,2,2,distractor,DISTRACTOR_OFF,52,40:20.5,343.909051,0,,,,,,keyboard,,"{""pd_used"":0}",2,0.008333,120,1
Sergio_G01_CNS-LLF5HT7Y0,cpeeg01,offmed_offstim,20260312_133400,34:36.6,2,2,distractor,FIX2_ON,60,40:20.5,343.909051,3.48532,,,,,,keyboard,deadline reached,"{""note"":""deadline reached""}",2,0.008333,120,1
Sergio_G01_CNS-LLF5HT7Y0,cpeeg01,offmed_offstim,20260312_133400,34:36.6,2,2,fix2,FIX2_OFF,61,40:24.0,347.394371,0.057295,,,,,,keyboard,,"{""pd_used"":0}",2,0.008333,120,1
Sergio_G01_CNS-LLF5HT7Y0,cpeeg01,offmed_offstim,20260312_133400,34:36.6,2,2,probe,DIGIT_RECALL_LINE_1,161,40:24.1,347.451666,12.141452,,1,,,,keyboard,first recall question,"{""value"":1,""note"":""first recall question"",""pd_used"":1}",2,0.008333,120,1
Sergio_G01_CNS-LLF5HT7Y0,cpeeg01,offmed_offstim,20260312_133400,34:36.6,2,2,probe,PROBE_DIGIT_OK_1,71,40:36.5,359.593119,0.420187,12.151542,slot#1,NaN,,,keyboard,probe_digit#1,"{""value"":""slot#1"",""entered"":null,""rt"":12.151541600003839,""note"":""probe_digit#1""}",2,0.008333,120,1
Sergio_G01_CNS-LLF5HT7Y0,cpeeg01,offmed_offstim,20260312_133400,34:36.6,2,2,probe,DIGIT1_OFF,146,40:36.6,360.013306,0,,7,,,,keyboard,digit#1 off,"{""value"":7,""note"":""digit#1 off"",""pd_used"":0}",2,0.008333,120,1
Sergio_G01_CNS-LLF5HT7Y0,cpeeg01,offmed_offstim,20260312_133400,34:36.6,2,2,probe,POSTDIG_FIX1_ON,151,40:36.6,360.013306,1.749733,,,,,,keyboard,after digit#1,"{""note"":""after digit#1""}",2,0.008333,120,1
Sergio_G01_CNS-LLF5HT7Y0,cpeeg01,offmed_offstim,20260312_133400,34:36.6,2,2,probe,POSTDIG_FIX1_OFF,156,40:38.4,361.763038,0.065061,,,,,,keyboard,after digit#1,"{""note"":""after digit#1"",""pd_used"":0}",2,0.008333,120,1
Sergio_G01_CNS-LLF5HT7Y0,cpeeg01,offmed_offstim,20260312_133400,34:36.6,2,2,probe,DIGIT_RECALL_LINE_2,162,40:38.4,361.828099,3.334936,,2,,,,keyboard,next recall question,"{""value"":2,""note"":""next recall question"",""pd_used"":1}",2,0.008333,120,1
Sergio_G01_CNS-LLF5HT7Y0,cpeeg01,offmed_offstim,20260312_133400,34:36.6,2,2,probe,PROBE_DIGIT_OK_2,71,40:42.2,365.163035,0.556543,17.721458,slot#2,NaN,,,keyboard,probe_digit#2,"{""value"":""slot#2"",""entered"":null,""rt"":17.721457700012252,""note"":""probe_digit#2""}",2,0.008333,120,1
Sergio_G01_CNS-LLF5HT7Y0,cpeeg01,offmed_offstim,20260312_133400,34:36.6,2,2,probe,DIGIT2_OFF,147,40:42.3,365.719577,0,,7,,,,keyboard,digit#2 off,"{""value"":7,""note"":""digit#2 off"",""pd_used"":0}",2,0.008333,120,1
Sergio_G01_CNS-LLF5HT7Y0,cpeeg01,offmed_offstim,20260312_133400,34:36.6,2,2,probe,POSTDIG_FIX2_ON,152,40:42.3,365.719577,1.580424,,,,,,keyboard,after digit#2,"{""note"":""after digit#2""}",2,0.008333,120,1
Sergio_G01_CNS-LLF5HT7Y0,cpeeg01,offmed_offstim,20260312_133400,34:36.6,2,2,probe,POSTDIG_FIX2_OFF,157,40:43.9,367.300001,0.063283,,,,,,keyboard,after digit#2,"{""note"":""after digit#2"",""pd_used"":0}",2,0.008333,120,1
Sergio_G01_CNS-LLF5HT7Y0,cpeeg01,offmed_offstim,20260312_133400,34:36.6,2,2,probe,DIGIT_RECALL_LINE_3,163,40:44.0,367.363283,4.567155,,3,,,,keyboard,next recall question,"{""value"":3,""note"":""next recall question"",""pd_used"":1}",2,0.008333,120,1
Sergio_G01_CNS-LLF5HT7Y0,cpeeg01,offmed_offstim,20260312_133400,34:36.6,2,2,probe,PROBE_DIGIT_OK_3,71,40:48.9,371.930438,0.43747,24.488861,slot#3,NaN,,,keyboard,probe_digit#3,"{""value"":""slot#3"",""entered"":null,""rt"":24.488861099933274,""note"":""probe_digit#3""}",2,0.008333,120,1
Sergio_G01_CNS-LLF5HT7Y0,cpeeg01,offmed_offstim,20260312_133400,34:36.6,2,2,probe,DIGIT3_OFF,148,40:49.0,372.367908,0,,7,,,,keyboard,digit#3 off,"{""value"":7,""note"":""digit#3 off"",""pd_used"":0}",2,0.008333,120,1
Sergio_G01_CNS-LLF5HT7Y0,cpeeg01,offmed_offstim,20260312_133400,34:36.6,2,2,probe,POSTDIG_FIX3_ON,153,40:49.0,372.367908,1.957739,,,,,,keyboard,after digit#3,"{""note"":""after digit#3""}",2,0.008333,120,1
Sergio_G01_CNS-LLF5HT7Y0,cpeeg01,offmed_offstim,20260312_133400,34:36.6,2,2,probe,POSTDIG_FIX3_OFF,158,40:50.9,374.325647,0.062898,,,,,,keyboard,after digit#3,"{""note"":""after digit#3"",""pd_used"":0}",2,0.008333,120,1
Sergio_G01_CNS-LLF5HT7Y0,cpeeg01,offmed_offstim,20260312_133400,34:36.6,2,2,probe,DIGIT_RECALL_LINE_4,164,40:51.0,374.388545,3.18198,,4,,,,keyboard,next recall question,"{""value"":4,""note"":""next recall question"",""pd_used"":1}",2,0.008333,120,1
Sergio_G01_CNS-LLF5HT7Y0,cpeeg01,offmed_offstim,20260312_133400,34:36.6,2,2,probe,PROBE_DIGIT_OK_4,71,40:54.6,377.570525,0.490708,30.128948,slot#4,NaN,,,keyboard,probe_digit#4,"{""value"":""slot#4"",""entered"":null,""rt"":30.128948400029913,""note"":""probe_digit#4""}",2,0.008333,120,1
Sergio_G01_CNS-LLF5HT7Y0,cpeeg01,offmed_offstim,20260312_133400,34:36.6,2,2,probe,DIGIT4_OFF,149,40:54.7,378.061234,0,,7,,,,keyboard,digit#4 off,"{""value"":7,""note"":""digit#4 off"",""pd_used"":0}",2,0.008333,120,1
Sergio_G01_CNS-LLF5HT7Y0,cpeeg01,offmed_offstim,20260312_133400,34:36.6,2,2,probe,POSTDIG_FIX4_ON,154,40:54.7,378.061234,1.793147,,,,,,keyboard,after digit#4,"{""note"":""after digit#4""}",2,0.008333,120,1
Sergio_G01_CNS-LLF5HT7Y0,cpeeg01,offmed_offstim,20260312_133400,34:36.6,2,2,probe,POSTDIG_FIX4_OFF,159,40:56.5,379.85438,0.063157,,,,,,keyboard,after digit#4,"{""note"":""after digit#4"",""pd_used"":0}",2,0.008333,120,1
Sergio_G01_CNS-LLF5HT7Y0,cpeeg01,offmed_offstim,20260312_133400,34:36.6,2,2,probe,DIGIT_RECALL_LINE_5,165,40:56.5,379.917537,3.98183,,5,,,,keyboard,next recall question,"{""value"":5,""note"":""next recall question"",""pd_used"":1}",2,0.008333,120,1
Sergio_G01_CNS-LLF5HT7Y0,cpeeg01,offmed_offstim,20260312_133400,34:36.6,2,2,probe,PROBE_DIGIT_OK_5,71,41:00.9,383.899367,0.460661,36.45779,slot#5,NaN,,,keyboard,probe_digit#5,"{""value"":""slot#5"",""entered"":null,""rt"":36.457789500011131,""note"":""probe_digit#5""}",2,0.008333,120,1
Sergio_G01_CNS-LLF5HT7Y0,cpeeg01,offmed_offstim,20260312_133400,34:36.6,2,2,probe,DIGIT5_OFF,150,41:01.0,384.360027,0,,7,,,,keyboard,digit#5 off,"{""value"":7,""note"":""digit#5 off"",""pd_used"":0}",2,0.008333,120,1
Sergio_G01_CNS-LLF5HT7Y0,cpeeg01,offmed_offstim,20260312_133400,34:36.6,2,2,probe,POSTDIG_FIX5_ON,155,41:01.0,384.360027,3.236164,,,,,,keyboard,after digit#5,"{""note"":""after digit#5""}",2,0.008333,120,1
Sergio_G01_CNS-LLF5HT7Y0,cpeeg01,offmed_offstim,20260312_133400,34:36.6,2,2,probe,POSTDIG_FIX5_OFF,160,41:04.2,387.596191,0.054526,,,,,,keyboard,after digit#5,"{""note"":""after digit#5"",""pd_used"":0}",2,0.008333,120,1
Sergio_G01_CNS-LLF5HT7Y0,cpeeg01,offmed_offstim,20260312_133400,34:36.6,2,2,probe,PROBE_DONE,73,41:04.2,387.650718,0.001745,,,,,,keyboard,probe complete,"{""value"":"""",""note"":""probe complete""}",2,0.008333,120,1
Sergio_G01_CNS-LLF5HT7Y0,cpeeg01,offmed_offstim,20260312_133400,34:36.6,2,2,probe,TRIAL_END,21,41:04.2,387.652463,0.044935,,,,,,keyboard,,{},2,0.008333,120,1
Sergio_G01_CNS-LLF5HT7Y0,cpeeg01,offmed_offstim,20260312_133400,34:36.6,2,3,probe,TRIAL_CHANGE,22,41:04.3,387.697398,0.001906,,,,,,keyboard,trial transition,"{""note"":""trial transition""}",2,0.008333,120,1
Sergio_G01_CNS-LLF5HT7Y0,cpeeg01,offmed_offstim,20260312_133400,34:36.6,2,3,probe,TRIAL_START,20,41:04.3,387.699305,0.060761,,,,,,keyboard,,{},2,0.008333,120,1
Sergio_G01_CNS-LLF5HT7Y0,cpeeg01,offmed_offstim,20260312_133400,34:36.6,2,3,fix1,FIX1_ON,30,41:04.4,387.760065,3.54313,,,,,,keyboard,,"{""pd_used"":0}",2,0.008333,120,1
Sergio_G01_CNS-LLF5HT7Y0,cpeeg01,offmed_offstim,20260312_133400,34:36.6,2,3,fix1,FIX1_OFF,31,41:07.9,391.303195,0.057283,,,,,,keyboard,,"{""pd_used"":0}",2,0.008333,120,1
Sergio_G01_CNS-LLF5HT7Y0,cpeeg01,offmed_offstim,20260312_133400,34:36.6,2,3,digit,DIGIT1_ON,141,41:08.0,391.360477,0.557635,,7,,,,keyboard,digit#1 shown,"{""value"":7,""note"":""digit#1 shown"",""pd_used"":1}",2,0.008333,120,1
Sergio_G01_CNS-LLF5HT7Y0,cpeeg01,offmed_offstim,20260312_133400,34:36.6,2,3,digit,DIGIT1_OFF,146,41:08.5,391.918112,0,,7,,,,keyboard,digit#1 off,"{""value"":7,""note"":""digit#1 off"",""pd_used"":0}",2,0.008333,120,1
Sergio_G01_CNS-LLF5HT7Y0,cpeeg01,offmed_offstim,20260312_133400,34:36.6,2,3,digit,POSTDIG_FIX1_ON,151,41:08.5,391.918112,1.570616,,,,,,keyboard,after digit#1,"{""note"":""after digit#1""}",2,0.008333,120,1
Sergio_G01_CNS-LLF5HT7Y0,cpeeg01,offmed_offstim,20260312_133400,34:36.6,2,3,digit,POSTDIG_FIX1_OFF,156,41:10.1,393.488728,0.057086,,,,,,keyboard,after digit#1,"{""note"":""after digit#1"",""pd_used"":0}",2,0.008333,120,1
Sergio_G01_CNS-LLF5HT7Y0,cpeeg01,offmed_offstim,20260312_133400,34:36.6,2,3,digit,DIGIT2_ON,142,41:10.2,393.545815,0.55683,,8,,,,keyboard,digit#2 shown,"{""value"":8,""note"":""digit#2 shown"",""pd_used"":1}",2,0.008333,120,1
Sergio_G01_CNS-LLF5HT7Y0,cpeeg01,offmed_offstim,20260312_133400,34:36.6,2,3,digit,DIGIT2_OFF,147,41:10.7,394.102645,0,,8,,,,keyboard,digit#2 off,"{""value"":8,""note"":""digit#2 off"",""pd_used"":0}",2,0.008333,120,1
Sergio_G01_CNS-LLF5HT7Y0,cpeeg01,offmed_offstim,20260312_133400,34:36.6,2,3,digit,POSTDIG_FIX2_ON,152,41:10.7,394.102645,1.860055,,,,,,keyboard,after digit#2,"{""note"":""after digit#2""}",2,0.008333,120,1
Sergio_G01_CNS-LLF5HT7Y0,cpeeg01,offmed_offstim,20260312_133400,34:36.6,2,3,digit,POSTDIG_FIX2_OFF,157,41:12.6,395.9627,0.057443,,,,,,keyboard,after digit#2,"{""note"":""after digit#2"",""pd_used"":0}",2,0.008333,120,1
Sergio_G01_CNS-LLF5HT7Y0,cpeeg01,offmed_offstim,20260312_133400,34:36.6,2,3,digit,DIGIT3_ON,143,41:12.6,396.020143,0.555856,,1,,,,keyboard,digit#3 shown,"{""value"":1,""note"":""digit#3 shown"",""pd_used"":1}",2,0.008333,120,1
Sergio_G01_CNS-LLF5HT7Y0,cpeeg01,offmed_offstim,20260312_133400,34:36.6,2,3,digit,DIGIT3_OFF,148,41:13.2,396.575999,0,,1,,,,keyboard,digit#3 off,"{""value"":1,""note"":""digit#3 off"",""pd_used"":0}",2,0.008333,120,1
Sergio_G01_CNS-LLF5HT7Y0,cpeeg01,offmed_offstim,20260312_133400,34:36.6,2,3,digit,POSTDIG_FIX3_ON,153,41:13.2,396.575999,1.588857,,,,,,keyboard,after digit#3,"{""note"":""after digit#3""}",2,0.008333,120,1
Sergio_G01_CNS-LLF5HT7Y0,cpeeg01,offmed_offstim,20260312_133400,34:36.6,2,3,digit,POSTDIG_FIX3_OFF,158,41:14.8,398.164856,0.052909,,,,,,keyboard,after digit#3,"{""note"":""after digit#3"",""pd_used"":0}",2,0.008333,120,1
Sergio_G01_CNS-LLF5HT7Y0,cpeeg01,offmed_offstim,20260312_133400,34:36.6,2,3,digit,DIGIT4_ON,144,41:14.8,398.217765,0.554501,,5,,,,keyboard,digit#4 shown,"{""value"":5,""note"":""digit#4 shown"",""pd_used"":1}",2,0.008333,120,1
Sergio_G01_CNS-LLF5HT7Y0,cpeeg01,offmed_offstim,20260312_133400,34:36.6,2,3,digit,DIGIT4_OFF,149,41:15.4,398.772267,0,,5,,,,keyboard,digit#4 off,"{""value"":5,""note"":""digit#4 off"",""pd_used"":0}",2,0.008333,120,1
Sergio_G01_CNS-LLF5HT7Y0,cpeeg01,offmed_offstim,20260312_133400,34:36.6,2,3,digit,POSTDIG_FIX4_ON,154,41:15.4,398.772267,1.711372,,,,,,keyboard,after digit#4,"{""note"":""after digit#4""}",2,0.008333,120,1
Sergio_G01_CNS-LLF5HT7Y0,cpeeg01,offmed_offstim,20260312_133400,34:36.6,2,3,digit,POSTDIG_FIX4_OFF,159,41:17.1,400.483639,0.057236,,,,,,keyboard,after digit#4,"{""note"":""after digit#4"",""pd_used"":0}",2,0.008333,120,1
Sergio_G01_CNS-LLF5HT7Y0,cpeeg01,offmed_offstim,20260312_133400,34:36.6,2,3,digit,DIGIT5_ON,145,41:17.2,400.540875,0.55643,,1,,,,keyboard,digit#5 shown,"{""value"":1,""note"":""digit#5 shown"",""pd_used"":1}",2,0.008333,120,1
Sergio_G01_CNS-LLF5HT7Y0,cpeeg01,offmed_offstim,20260312_133400,34:36.6,2,3,digit,DIGIT5_OFF,150,41:17.7,401.097305,0,,1,,,,keyboard,digit#5 off,"{""value"":1,""note"":""digit#5 off"",""pd_used"":0}",2,0.008333,120,1
Sergio_G01_CNS-LLF5HT7Y0,cpeeg01,offmed_offstim,20260312_133400,34:36.6,2,3,digit,POSTDIG_FIX5_ON,155,41:17.7,401.097305,3.461424,,,,,,keyboard,after digit#5,"{""note"":""after digit#5""}",2,0.008333,120,1
Sergio_G01_CNS-LLF5HT7Y0,cpeeg01,offmed_offstim,20260312_133400,34:36.6,2,3,digit,POSTDIG_FIX5_OFF,160,41:21.2,404.55873,0.057064,,,,,,keyboard,after digit#5,"{""note"":""after digit#5"",""pd_used"":0}",2,0.008333,120,1
Sergio_G01_CNS-LLF5HT7Y0,cpeeg01,offmed_offstim,20260312_133400,34:36.6,2,3,distractor,DISTRACTOR_ON,50,41:21.2,404.615794,9.564038,,9+0=10,,,,keyboard,,"{""value"":""9+0=10"",""isCorrectTruth"":false,""trueSum"":9,""pd_used"":1}",2,0.008333,120,1
Sergio_G01_CNS-LLF5HT7Y0,cpeeg01,offmed_offstim,20260312_133400,34:36.6,2,3,distractor,DISTRACTOR_ANS,51,41:31.2,414.179832,0,9.564038,9+0=10,F,1,,keyboard,key= (False),"{""value"":""9+0=10"",""entered"":""F"",""rt"":9.5640380999539047,""correct"":1,""note"":""key= (False)"",""truth"":false,""trueSum"":9,""shownSum"":10,""a"":9,""b"":0}",2,0.008333,120,1
Sergio_G01_CNS-LLF5HT7Y0,cpeeg01,offmed_offstim,20260312_133400,34:36.6,2,3,distractor,ANS_CORRECT,100,41:31.2,414.179832,0.457865,,,,,,keyboard,,{},2,0.008333,120,1
Sergio_G01_CNS-LLF5HT7Y0,cpeeg01,offmed_offstim,20260312_133400,34:36.6,2,3,distractor,DISTRACTOR_OFF,52,41:31.3,414.637696,0,,,,,,keyboard,,"{""pd_used"":0}",2,0.008333,120,1
Sergio_G01_CNS-LLF5HT7Y0,cpeeg01,offmed_offstim,20260312_133400,34:36.6,2,3,distractor,FIX2_ON,60,41:31.3,414.637696,3.469242,,,,,,keyboard,immediate after response,"{""note"":""immediate after response""}",2,0.008333,120,1
Sergio_G01_CNS-LLF5HT7Y0,cpeeg01,offmed_offstim,20260312_133400,34:36.6,2,3,fix2,FIX2_OFF,61,41:34.7,418.106939,0.056093,,,,,,keyboard,,"{""pd_used"":0}",2,0.008333,120,1
Sergio_G01_CNS-LLF5HT7Y0,cpeeg01,offmed_offstim,20260312_133400,34:36.6,2,3,probe,DIGIT_RECALL_LINE_1,161,41:34.8,418.163031,8.327076,,1,,,,keyboard,first recall question,"{""value"":1,""note"":""first recall question"",""pd_used"":1}",2,0.008333,120,1
Sergio_G01_CNS-LLF5HT7Y0,cpeeg01,offmed_offstim,20260312_133400,34:36.6,2,3,probe,PROBE_DIGIT_OK_1,71,41:43.4,426.490108,0.439253,8.337064,slot#1,NaN,,,keyboard,probe_digit#1,"{""value"":""slot#1"",""entered"":null,""rt"":8.3370638000778854,""note"":""probe_digit#1""}",2,0.008333,120,1
Sergio_G01_CNS-LLF5HT7Y0,cpeeg01,offmed_offstim,20260312_133400,34:36.6,2,3,probe,DIGIT1_OFF,146,41:43.5,426.929361,0,,1,,,,keyboard,digit#1 off,"{""value"":1,""note"":""digit#1 off"",""pd_used"":0}",2,0.008333,120,1
Sergio_G01_CNS-LLF5HT7Y0,cpeeg01,offmed_offstim,20260312_133400,34:36.6,2,3,probe,POSTDIG_FIX1_ON,151,41:43.6,426.929361,1.908307,,,,,,keyboard,after digit#1,"{""note"":""after digit#1""}",2,0.008333,120,1
Sergio_G01_CNS-LLF5HT7Y0,cpeeg01,offmed_offstim,20260312_133400,34:36.6,2,3,probe,POSTDIG_FIX1_OFF,156,41:45.5,428.837668,0.063885,,,,,,keyboard,after digit#1,"{""note"":""after digit#1"",""pd_used"":0}",2,0.008333,120,1
Sergio_G01_CNS-LLF5HT7Y0,cpeeg01,offmed_offstim,20260312_133400,34:36.6,2,3,probe,DIGIT_RECALL_LINE_2,162,41:45.5,428.901553,13.6502,,2,,,,keyboard,next recall question,"{""value"":2,""note"":""next recall question"",""pd_used"":1}",2,0.008333,120,1
Sergio_G01_CNS-LLF5HT7Y0,cpeeg01,offmed_offstim,20260312_133400,34:36.6,2,3,probe,PROBE_DIGIT_OK_2,71,41:59.5,442.551754,0.420238,24.39871,slot#2,NaN,,,keyboard,probe_digit#2,"{""value"":""slot#2"",""entered"":null,""rt"":24.398709599976428,""note"":""probe_digit#2""}",2,0.008333,120,1
Sergio_G01_CNS-LLF5HT7Y0,cpeeg01,offmed_offstim,20260312_133400,34:36.6,2,3,probe,DIGIT2_OFF,147,41:59.6,442.971992,0,,1,,,,keyboard,digit#2 off,"{""value"":1,""note"":""digit#2 off"",""pd_used"":0}",2,0.008333,120,1
Sergio_G01_CNS-LLF5HT7Y0,cpeeg01,offmed_offstim,20260312_133400,34:36.6,2,3,probe,POSTDIG_FIX2_ON,152,41:59.6,442.971992,1.914047,,,,,,keyboard,after digit#2,"{""note"":""after digit#2""}",2,0.008333,120,1
Sergio_G01_CNS-LLF5HT7Y0,cpeeg01,offmed_offstim,20260312_133400,34:36.6,2,3,probe,POSTDIG_FIX2_OFF,157,42:01.5,444.886039,0.061836,,,,,,keyboard,after digit#2,"{""note"":""after digit#2"",""pd_used"":0}",2,0.008333,120,1
Sergio_G01_CNS-LLF5HT7Y0,cpeeg01,offmed_offstim,20260312_133400,34:36.6,2,3,probe,DIGIT_RECALL_LINE_3,163,42:01.6,444.947875,5.577052,,3,,,,keyboard,next recall question,"{""value"":3,""note"":""next recall question"",""pd_used"":1}",2,0.008333,120,1
Sergio_G01_CNS-LLF5HT7Y0,cpeeg01,offmed_offstim,20260312_133400,34:36.6,2,3,probe,PROBE_DIGIT_OK_3,71,42:07.5,450.524926,0.495705,32.371883,slot#3,NaN,,,keyboard,probe_digit#3,"{""value"":""slot#3"",""entered"":null,""rt"":32.371882500010543,""note"":""probe_digit#3""}",2,0.008333,120,1
Sergio_G01_CNS-LLF5HT7Y0,cpeeg01,offmed_offstim,20260312_133400,34:36.6,2,3,probe,DIGIT3_OFF,148,42:07.6,451.020631,0,,1,,,,keyboard,digit#3 off,"{""value"":1,""note"":""digit#3 off"",""pd_used"":0}",2,0.008333,120,1
Sergio_G01_CNS-LLF5HT7Y0,cpeeg01,offmed_offstim,20260312_133400,34:36.6,2,3,probe,POSTDIG_FIX3_ON,153,42:07.6,451.020631,1.616076,,,,,,keyboard,after digit#3,"{""note"":""after digit#3""}",2,0.008333,120,1
Sergio_G01_CNS-LLF5HT7Y0,cpeeg01,offmed_offstim,20260312_133400,34:36.6,2,3,probe,POSTDIG_FIX3_OFF,158,42:09.3,452.636707,0.060996,,,,,,keyboard,after digit#3,"{""note"":""after digit#3"",""pd_used"":0}",2,0.008333,120,1
Sergio_G01_CNS-LLF5HT7Y0,cpeeg01,offmed_offstim,20260312_133400,34:36.6,2,3,probe,DIGIT_RECALL_LINE_4,164,42:09.3,452.697704,3.837954,,4,,,,keyboard,next recall question,"{""value"":4,""note"":""next recall question"",""pd_used"":1}",2,0.008333,120,1
Sergio_G01_CNS-LLF5HT7Y0,cpeeg01,offmed_offstim,20260312_133400,34:36.6,2,3,probe,PROBE_DIGIT_OK_4,71,42:13.7,456.535658,0.642437,38.382614,slot#4,NaN,,,keyboard,probe_digit#4,"{""value"":""slot#4"",""entered"":null,""rt"":38.382614300004207,""note"":""probe_digit#4""}",2,0.008333,120,1
Sergio_G01_CNS-LLF5HT7Y0,cpeeg01,offmed_offstim,20260312_133400,34:36.6,2,3,probe,DIGIT4_OFF,149,42:13.8,457.178096,0,,1,,,,keyboard,digit#4 off,"{""value"":1,""note"":""digit#4 off"",""pd_used"":0}",2,0.008333,120,1
Sergio_G01_CNS-LLF5HT7Y0,cpeeg01,offmed_offstim,20260312_133400,34:36.6,2,3,probe,POSTDIG_FIX4_ON,154,42:13.8,457.178096,1.775758,,,,,,keyboard,after digit#4,"{""note"":""after digit#4""}",2,0.008333,120,1
Sergio_G01_CNS-LLF5HT7Y0,cpeeg01,offmed_offstim,20260312_133400,34:36.6,2,3,probe,POSTDIG_FIX4_OFF,159,42:15.6,458.953854,0.06478,,,,,,keyboard,after digit#4,"{""note"":""after digit#4"",""pd_used"":0}",2,0.008333,120,1
Sergio_G01_CNS-LLF5HT7Y0,cpeeg01,offmed_offstim,20260312_133400,34:36.6,2,3,probe,DIGIT_RECALL_LINE_5,165,42:15.6,459.018634,4.287912,,5,,,,keyboard,next recall question,"{""value"":5,""note"":""next recall question"",""pd_used"":1}",2,0.008333,120,1
Sergio_G01_CNS-LLF5HT7Y0,cpeeg01,offmed_offstim,20260312_133400,34:36.6,2,3,probe,PROBE_DIGIT_OK_5,71,42:20.3,463.306546,0.480553,45.153502,slot#5,NaN,,,keyboard,probe_digit#5,"{""value"":""slot#5"",""entered"":null,""rt"":45.153501900029369,""note"":""probe_digit#5""}",2,0.008333,120,1
Sergio_G01_CNS-LLF5HT7Y0,cpeeg01,offmed_offstim,20260312_133400,34:36.6,2,3,probe,DIGIT5_OFF,150,42:20.4,463.787099,0,,1,,,,keyboard,digit#5 off,"{""value"":1,""note"":""digit#5 off"",""pd_used"":0}",2,0.008333,120,1
Sergio_G01_CNS-LLF5HT7Y0,cpeeg01,offmed_offstim,20260312_133400,34:36.6,2,3,probe,POSTDIG_FIX5_ON,155,42:20.4,463.787099,3.38214,,,,,,keyboard,after digit#5,"{""note"":""after digit#5""}",2,0.008333,120,1
Sergio_G01_CNS-LLF5HT7Y0,cpeeg01,offmed_offstim,20260312_133400,34:36.6,2,3,probe,POSTDIG_FIX5_OFF,160,42:23.8,467.169239,0.052872,,,,,,keyboard,after digit#5,"{""note"":""after digit#5"",""pd_used"":0}",2,0.008333,120,1
Sergio_G01_CNS-LLF5HT7Y0,cpeeg01,offmed_offstim,20260312_133400,34:36.6,2,3,probe,PROBE_DONE,73,42:23.8,467.222112,0.001835,,,,,,keyboard,probe complete,"{""value"":"""",""note"":""probe complete""}",2,0.008333,120,1
Sergio_G01_CNS-LLF5HT7Y0,cpeeg01,offmed_offstim,20260312_133400,34:36.6,2,3,probe,TRIAL_END,21,42:23.8,467.223947,0.045321,,,,,,keyboard,,{},2,0.008333,120,1
Sergio_G01_CNS-LLF5HT7Y0,cpeeg01,offmed_offstim,20260312_133400,34:36.6,2,4,probe,TRIAL_CHANGE,22,42:23.8,467.269267,0.002369,,,,,,keyboard,trial transition,"{""note"":""trial transition""}",2,0.008333,120,1
Sergio_G01_CNS-LLF5HT7Y0,cpeeg01,offmed_offstim,20260312_133400,34:36.6,2,4,probe,TRIAL_START,20,42:23.8,467.271636,0.061092,,,,,,keyboard,,{},2,0.008333,120,1
Sergio_G01_CNS-LLF5HT7Y0,cpeeg01,offmed_offstim,20260312_133400,34:36.6,2,4,fix1,FIX1_ON,30,42:23.9,467.332728,3.222164,,,,,,keyboard,,"{""pd_used"":0}",2,0.008333,120,1
Sergio_G01_CNS-LLF5HT7Y0,cpeeg01,offmed_offstim,20260312_133400,34:36.6,2,4,fix1,FIX1_OFF,31,42:27.2,470.554892,0.056796,,,,,,keyboard,,"{""pd_used"":0}",2,0.008333,120,1
Sergio_G01_CNS-LLF5HT7Y0,cpeeg01,offmed_offstim,20260312_133400,34:36.6,2,4,digit,DIGIT1_ON,141,42:27.2,470.611688,0.557376,,9,,,,keyboard,digit#1 shown,"{""value"":9,""note"":""digit#1 shown"",""pd_used"":1}",2,0.008333,120,1
Sergio_G01_CNS-LLF5HT7Y0,cpeeg01,offmed_offstim,20260312_133400,34:36.6,2,4,digit,DIGIT1_OFF,146,42:27.8,471.169064,0,,9,,,,keyboard,digit#1 off,"{""value"":9,""note"":""digit#1 off"",""pd_used"":0}",2,0.008333,120,1
Sergio_G01_CNS-LLF5HT7Y0,cpeeg01,offmed_offstim,20260312_133400,34:36.6,2,4,digit,POSTDIG_FIX1_ON,151,42:27.8,471.169064,1.969713,,,,,,keyboard,after digit#1,"{""note"":""after digit#1""}",2,0.008333,120,1
Sergio_G01_CNS-LLF5HT7Y0,cpeeg01,offmed_offstim,20260312_133400,34:36.6,2,4,digit,POSTDIG_FIX1_OFF,156,42:29.8,473.138777,0.054563,,,,,,keyboard,after digit#1,"{""note"":""after digit#1"",""pd_used"":0}",2,0.008333,120,1
Sergio_G01_CNS-LLF5HT7Y0,cpeeg01,offmed_offstim,20260312_133400,34:36.6,2,4,digit,DIGIT2_ON,142,42:29.8,473.19334,0.556283,,5,,,,keyboard,digit#2 shown,"{""value"":5,""note"":""digit#2 shown"",""pd_used"":1}",2,0.008333,120,1
Sergio_G01_CNS-LLF5HT7Y0,cpeeg01,offmed_offstim,20260312_133400,34:36.6,2,4,digit,DIGIT2_OFF,147,42:30.4,473.749623,0,,5,,,,keyboard,digit#2 off,"{""value"":5,""note"":""digit#2 off"",""pd_used"":0}",2,0.008333,120,1
Sergio_G01_CNS-LLF5HT7Y0,cpeeg01,offmed_offstim,20260312_133400,34:36.6,2,4,digit,POSTDIG_FIX2_ON,152,42:30.4,473.749623,2.029028,,,,,,keyboard,after digit#2,"{""note"":""after digit#2""}",2,0.008333,120,1
Sergio_G01_CNS-LLF5HT7Y0,cpeeg01,offmed_offstim,20260312_133400,34:36.6,2,4,digit,POSTDIG_FIX2_OFF,157,42:32.4,475.778651,0.056051,,,,,,keyboard,after digit#2,"{""note"":""after digit#2"",""pd_used"":0}",2,0.008333,120,1
Sergio_G01_CNS-LLF5HT7Y0,cpeeg01,offmed_offstim,20260312_133400,34:36.6,2,4,digit,DIGIT3_ON,143,42:32.5,475.834702,0.556205,,5,,,,keyboard,digit#3 shown,"{""value"":5,""note"":""digit#3 shown"",""pd_used"":1}",2,0.008333,120,1
Sergio_G01_CNS-LLF5HT7Y0,cpeeg01,offmed_offstim,20260312_133400,34:36.6,2,4,digit,DIGIT3_OFF,148,42:33.0,476.390907,0,,5,,,,keyboard,digit#3 off,"{""value"":5,""note"":""digit#3 off"",""pd_used"":0}",2,0.008333,120,1
Sergio_G01_CNS-LLF5HT7Y0,cpeeg01,offmed_offstim,20260312_133400,34:36.6,2,4,digit,POSTDIG_FIX3_ON,153,42:33.0,476.390907,1.822539,,,,,,keyboard,after digit#3,"{""note"":""after digit#3""}",2,0.008333,120,1
Sergio_G01_CNS-LLF5HT7Y0,cpeeg01,offmed_offstim,20260312_133400,34:36.6,2,4,digit,POSTDIG_FIX3_OFF,158,42:34.8,478.213446,0.05763,,,,,,keyboard,after digit#3,"{""note"":""after digit#3"",""pd_used"":0}",2,0.008333,120,1
Sergio_G01_CNS-LLF5HT7Y0,cpeeg01,offmed_offstim,20260312_133400,34:36.6,2,4,digit,DIGIT4_ON,144,42:34.9,478.271076,0.556153,,5,,,,keyboard,digit#4 shown,"{""value"":5,""note"":""digit#4 shown"",""pd_used"":1}",2,0.008333,120,1
Sergio_G01_CNS-LLF5HT7Y0,cpeeg01,offmed_offstim,20260312_133400,34:36.6,2,4,digit,DIGIT4_OFF,149,42:35.4,478.82723,0,,5,,,,keyboard,digit#4 off,"{""value"":5,""note"":""digit#4 off"",""pd_used"":0}",2,0.008333,120,1
Sergio_G01_CNS-LLF5HT7Y0,cpeeg01,offmed_offstim,20260312_133400,34:36.6,2,4,digit,POSTDIG_FIX4_ON,154,42:35.4,478.82723,1.705966,,,,,,keyboard,after digit#4,"{""note"":""after digit#4""}",2,0.008333,120,1
Sergio_G01_CNS-LLF5HT7Y0,cpeeg01,offmed_offstim,20260312_133400,34:36.6,2,4,digit,POSTDIG_FIX4_OFF,159,42:37.1,480.533195,0.054961,,,,,,keyboard,after digit#4,"{""note"":""after digit#4"",""pd_used"":0}",2,0.008333,120,1
Sergio_G01_CNS-LLF5HT7Y0,cpeeg01,offmed_offstim,20260312_133400,34:36.6,2,4,digit,DIGIT5_ON,145,42:37.2,480.588156,0.556416,,3,,,,keyboard,digit#5 shown,"{""value"":3,""note"":""digit#5 shown"",""pd_used"":1}",2,0.008333,120,1
Sergio_G01_CNS-LLF5HT7Y0,cpeeg01,offmed_offstim,20260312_133400,34:36.6,2,4,digit,DIGIT5_OFF,150,42:37.8,481.144572,0,,3,,,,keyboard,digit#5 off,"{""value"":3,""note"":""digit#5 off"",""pd_used"":0}",2,0.008333,120,1
Sergio_G01_CNS-LLF5HT7Y0,cpeeg01,offmed_offstim,20260312_133400,34:36.6,2,4,digit,POSTDIG_FIX5_ON,155,42:37.8,481.144572,3.356623,,,,,,keyboard,after digit#5,"{""note"":""after digit#5""}",2,0.008333,120,1
Sergio_G01_CNS-LLF5HT7Y0,cpeeg01,offmed_offstim,20260312_133400,34:36.6,2,4,digit,POSTDIG_FIX5_OFF,160,42:41.1,484.501195,0.05817,,,,,,keyboard,after digit#5,"{""note"":""after digit#5"",""pd_used"":0}",2,0.008333,120,1
Sergio_G01_CNS-LLF5HT7Y0,cpeeg01,offmed_offstim,20260312_133400,34:36.6,2,4,distractor,DISTRACTOR_ON,50,42:41.2,484.559365,19.646269,,8+4=15,,,,keyboard,,"{""value"":""8+4=15"",""isCorrectTruth"":false,""trueSum"":12,""pd_used"":1}",2,0.008333,120,1
Sergio_G01_CNS-LLF5HT7Y0,cpeeg01,offmed_offstim,20260312_133400,34:36.6,2,4,distractor,DISTRACTOR_ANS,51,43:01.2,504.205634,0,19.646269,8+4=15,F,1,,keyboard,key= (False),"{""value"":""8+4=15"",""entered"":""F"",""rt"":19.646268699900247,""correct"":1,""note"":""key= (False)"",""truth"":false,""trueSum"":12,""shownSum"":15,""a"":8,""b"":4}",2,0.008333,120,1
Sergio_G01_CNS-LLF5HT7Y0,cpeeg01,offmed_offstim,20260312_133400,34:36.6,2,4,distractor,ANS_CORRECT,100,43:01.2,504.205634,0.445001,,,,,,keyboard,,{},2,0.008333,120,1
Sergio_G01_CNS-LLF5HT7Y0,cpeeg01,offmed_offstim,20260312_133400,34:36.6,2,4,distractor,DISTRACTOR_OFF,52,43:01.3,504.650635,0,,,,,,keyboard,,"{""pd_used"":0}",2,0.008333,120,1
Sergio_G01_CNS-LLF5HT7Y0,cpeeg01,offmed_offstim,20260312_133400,34:36.6,2,4,distractor,FIX2_ON,60,43:01.3,504.650635,3.336106,,,,,,keyboard,immediate after response,"{""note"":""immediate after response""}",2,0.008333,120,1
Sergio_G01_CNS-LLF5HT7Y0,cpeeg01,offmed_offstim,20260312_133400,34:36.6,2,4,fix2,FIX2_OFF,61,43:04.6,507.986741,0.056389,,,,,,keyboard,,"{""pd_used"":0}",2,0.008333,120,1
Sergio_G01_CNS-LLF5HT7Y0,cpeeg01,offmed_offstim,20260312_133400,34:36.6,2,4,probe,DIGIT_RECALL_LINE_1,161,43:04.7,508.04313,6.401295,,1,,,,keyboard,first recall question,"{""value"":1,""note"":""first recall question"",""pd_used"":1}",2,0.008333,120,1
Sergio_G01_CNS-LLF5HT7Y0,cpeeg01,offmed_offstim,20260312_133400,34:36.6,2,4,probe,PROBE_DIGIT_OK_1,71,43:11.4,514.444425,0.424586,6.41128,slot#1,NaN,,,keyboard,probe_digit#1,"{""value"":""slot#1"",""entered"":null,""rt"":6.4112804000033066,""note"":""probe_digit#1""}",2,0.008333,120,1
Sergio_G01_CNS-LLF5HT7Y0,cpeeg01,offmed_offstim,20260312_133400,34:36.6,2,4,probe,DIGIT1_OFF,146,43:11.5,514.86901,0,,3,,,,keyboard,digit#1 off,"{""value"":3,""note"":""digit#1 off"",""pd_used"":0}",2,0.008333,120,1
Sergio_G01_CNS-LLF5HT7Y0,cpeeg01,offmed_offstim,20260312_133400,34:36.6,2,4,probe,POSTDIG_FIX1_ON,151,43:11.5,514.86901,1.94859,,,,,,keyboard,after digit#1,"{""note"":""after digit#1""}",2,0.008333,120,1
Sergio_G01_CNS-LLF5HT7Y0,cpeeg01,offmed_offstim,20260312_133400,34:36.6,2,4,probe,POSTDIG_FIX1_OFF,156,43:13.4,516.8176,0.062661,,,,,,keyboard,after digit#1,"{""note"":""after digit#1"",""pd_used"":0}",2,0.008333,120,1
Sergio_G01_CNS-LLF5HT7Y0,cpeeg01,offmed_offstim,20260312_133400,34:36.6,2,4,probe,DIGIT_RECALL_LINE_2,162,43:13.5,516.880261,4.602044,,2,,,,keyboard,next recall question,"{""value"":2,""note"":""next recall question"",""pd_used"":1}",2,0.008333,120,1
Sergio_G01_CNS-LLF5HT7Y0,cpeeg01,offmed_offstim,20260312_133400,34:36.6,2,4,probe,PROBE_DIGIT_OK_2,71,43:18.5,521.482304,0.45706,13.44916,slot#2,NaN,,,keyboard,probe_digit#2,"{""value"":""slot#2"",""entered"":null,""rt"":13.449160099960864,""note"":""probe_digit#2""}",2,0.008333,120,1
Sergio_G01_CNS-LLF5HT7Y0,cpeeg01,offmed_offstim,20260312_133400,34:36.6,2,4,probe,DIGIT2_OFF,147,43:18.6,521.939364,0,,3,,,,keyboard,digit#2 off,"{""value"":3,""note"":""digit#2 off"",""pd_used"":0}",2,0.008333,120,1
Sergio_G01_CNS-LLF5HT7Y0,cpeeg01,offmed_offstim,20260312_133400,34:36.6,2,4,probe,POSTDIG_FIX2_ON,152,43:18.6,521.939364,1.738797,,,,,,keyboard,after digit#2,"{""note"":""after digit#2""}",2,0.008333,120,1
Sergio_G01_CNS-LLF5HT7Y0,cpeeg01,offmed_offstim,20260312_133400,34:36.6,2,4,probe,POSTDIG_FIX2_OFF,157,43:20.3,523.678161,0.065339,,,,,,keyboard,after digit#2,"{""note"":""after digit#2"",""pd_used"":0}",2,0.008333,120,1
Sergio_G01_CNS-LLF5HT7Y0,cpeeg01,offmed_offstim,20260312_133400,34:36.6,2,4,probe,DIGIT_RECALL_LINE_3,163,43:20.4,523.7435,2.881272,,3,,,,keyboard,next recall question,"{""value"":3,""note"":""next recall question"",""pd_used"":1}",2,0.008333,120,1
Sergio_G01_CNS-LLF5HT7Y0,cpeeg01,offmed_offstim,20260312_133400,34:36.6,2,4,probe,PROBE_DIGIT_OK_3,71,43:23.7,526.624772,0.603381,18.591628,slot#3,NaN,,,keyboard,probe_digit#3,"{""value"":""slot#3"",""entered"":null,""rt"":18.591627599904314,""note"":""probe_digit#3""}",2,0.008333,120,1
Sergio_G01_CNS-LLF5HT7Y0,cpeeg01,offmed_offstim,20260312_133400,34:36.6,2,4,probe,DIGIT3_OFF,148,43:23.8,527.228153,0,,3,,,,keyboard,digit#3 off,"{""value"":3,""note"":""digit#3 off"",""pd_used"":0}",2,0.008333,120,1
Sergio_G01_CNS-LLF5HT7Y0,cpeeg01,offmed_offstim,20260312_133400,34:36.6,2,4,probe,POSTDIG_FIX3_ON,153,43:23.9,527.228153,1.824892,,,,,,keyboard,after digit#3,"{""note"":""after digit#3""}",2,0.008333,120,1
Sergio_G01_CNS-LLF5HT7Y0,cpeeg01,offmed_offstim,20260312_133400,34:36.6,2,4,probe,POSTDIG_FIX3_OFF,158,43:25.7,529.053045,0.064639,,,,,,keyboard,after digit#3,"{""note"":""after digit#3"",""pd_used"":0}",2,0.008333,120,1
Sergio_G01_CNS-LLF5HT7Y0,cpeeg01,offmed_offstim,20260312_133400,34:36.6,2,4,probe,DIGIT_RECALL_LINE_4,164,43:25.7,529.117684,3.180257,,4,,,,keyboard,next recall question,"{""value"":4,""note"":""next recall question"",""pd_used"":1}",2,0.008333,120,1
Sergio_G01_CNS-LLF5HT7Y0,cpeeg01,offmed_offstim,20260312_133400,34:36.6,2,4,probe,PROBE_DIGIT_OK_4,71,43:29.3,532.297941,0.529681,24.264797,slot#4,NaN,,,keyboard,probe_digit#4,"{""value"":""slot#4"",""entered"":null,""rt"":24.264796799980104,""note"":""probe_digit#4""}",2,0.008333,120,1
Sergio_G01_CNS-LLF5HT7Y0,cpeeg01,offmed_offstim,20260312_133400,34:36.6,2,4,probe,DIGIT4_OFF,149,43:29.4,532.827622,0,,3,,,,keyboard,digit#4 off,"{""value"":3,""note"":""digit#4 off"",""pd_used"":0}",2,0.008333,120,1
Sergio_G01_CNS-LLF5HT7Y0,cpeeg01,offmed_offstim,20260312_133400,34:36.6,2,4,probe,POSTDIG_FIX4_ON,154,43:29.4,532.827622,1.75142,,,,,,keyboard,after digit#4,"{""note"":""after digit#4""}",2,0.008333,120,1
Sergio_G01_CNS-LLF5HT7Y0,cpeeg01,offmed_offstim,20260312_133400,34:36.6,2,4,probe,POSTDIG_FIX4_OFF,159,43:31.2,534.579042,0.06364,,,,,,keyboard,after digit#4,"{""note"":""after digit#4"",""pd_used"":0}",2,0.008333,120,1
Sergio_G01_CNS-LLF5HT7Y0,cpeeg01,offmed_offstim,20260312_133400,34:36.6,2,4,probe,DIGIT_RECALL_LINE_5,165,43:31.3,534.642682,12.870558,,5,,,,keyboard,next recall question,"{""value"":5,""note"":""next recall question"",""pd_used"":1}",2,0.008333,120,1
Sergio_G01_CNS-LLF5HT7Y0,cpeeg01,offmed_offstim,20260312_133400,34:36.6,2,4,probe,PROBE_DIGIT_OK_5,71,43:44.6,547.51324,0.525615,39.480096,slot#5,NaN,,,keyboard,probe_digit#5,"{""value"":""slot#5"",""entered"":null,""rt"":39.480096099898219,""note"":""probe_digit#5""}",2,0.008333,120,1
Sergio_G01_CNS-LLF5HT7Y0,cpeeg01,offmed_offstim,20260312_133400,34:36.6,2,4,probe,DIGIT5_OFF,150,43:44.7,548.038855,0,,3,,,,keyboard,digit#5 off,"{""value"":3,""note"":""digit#5 off"",""pd_used"":0}",2,0.008333,120,1
Sergio_G01_CNS-LLF5HT7Y0,cpeeg01,offmed_offstim,20260312_133400,34:36.6,2,4,probe,POSTDIG_FIX5_ON,155,43:44.7,548.038855,3.466256,,,,,,keyboard,after digit#5,"{""note"":""after digit#5""}",2,0.008333,120,1
Sergio_G01_CNS-LLF5HT7Y0,cpeeg01,offmed_offstim,20260312_133400,34:36.6,2,4,probe,POSTDIG_FIX5_OFF,160,43:48.1,551.505111,0.052674,,,,,,keyboard,after digit#5,"{""note"":""after digit#5"",""pd_used"":0}",2,0.008333,120,1
Sergio_G01_CNS-LLF5HT7Y0,cpeeg01,offmed_offstim,20260312_133400,34:36.6,2,4,probe,PROBE_DONE,73,43:48.1,551.557785,0.001606,,,,,,keyboard,probe complete,"{""value"":"""",""note"":""probe complete""}",2,0.008333,120,1
Sergio_G01_CNS-LLF5HT7Y0,cpeeg01,offmed_offstim,20260312_133400,34:36.6,2,4,probe,TRIAL_END,21,43:48.1,551.559391,0.045619,,,,,,keyboard,,{},2,0.008333,120,1
Sergio_G01_CNS-LLF5HT7Y0,cpeeg01,offmed_offstim,20260312_133400,34:36.6,2,5,probe,TRIAL_CHANGE,22,43:48.2,551.60501,0.003094,,,,,,keyboard,trial transition,"{""note"":""trial transition""}",2,0.008333,120,1
Sergio_G01_CNS-LLF5HT7Y0,cpeeg01,offmed_offstim,20260312_133400,34:36.6,2,5,probe,TRIAL_START,20,43:48.2,551.608104,0.056924,,,,,,keyboard,,{},2,0.008333,120,1
Sergio_G01_CNS-LLF5HT7Y0,cpeeg01,offmed_offstim,20260312_133400,34:36.6,2,5,fix1,FIX1_ON,30,43:48.3,551.665028,3.43601,,,,,,keyboard,,"{""pd_used"":0}",2,0.008333,120,1
Sergio_G01_CNS-LLF5HT7Y0,cpeeg01,offmed_offstim,20260312_133400,34:36.6,2,5,fix1,FIX1_OFF,31,43:51.7,555.101037,0.05766,,,,,,keyboard,,"{""pd_used"":0}",2,0.008333,120,1
Sergio_G01_CNS-LLF5HT7Y0,cpeeg01,offmed_offstim,20260312_133400,34:36.6,2,5,digit,DIGIT1_ON,141,43:51.8,555.158697,0.556436,,3,,,,keyboard,digit#1 shown,"{""value"":3,""note"":""digit#1 shown"",""pd_used"":1}",2,0.008333,120,1
Sergio_G01_CNS-LLF5HT7Y0,cpeeg01,offmed_offstim,20260312_133400,34:36.6,2,5,digit,DIGIT1_OFF,146,43:52.3,555.715133,0,,3,,,,keyboard,digit#1 off,"{""value"":3,""note"":""digit#1 off"",""pd_used"":0}",2,0.008333,120,1
Sergio_G01_CNS-LLF5HT7Y0,cpeeg01,offmed_offstim,20260312_133400,34:36.6,2,5,digit,POSTDIG_FIX1_ON,151,43:52.3,555.715133,1.587494,,,,,,keyboard,after digit#1,"{""note"":""after digit#1""}",2,0.008333,120,1
Sergio_G01_CNS-LLF5HT7Y0,cpeeg01,offmed_offstim,20260312_133400,34:36.6,2,5,digit,POSTDIG_FIX1_OFF,156,43:53.9,557.302627,0.05797,,,,,,keyboard,after digit#1,"{""note"":""after digit#1"",""pd_used"":0}",2,0.008333,120,1
Sergio_G01_CNS-LLF5HT7Y0,cpeeg01,offmed_offstim,20260312_133400,34:36.6,2,5,digit,DIGIT2_ON,142,43:54.0,557.360597,0.556489,,4,,,,keyboard,digit#2 shown,"{""value"":4,""note"":""digit#2 shown"",""pd_used"":1}",2,0.008333,120,1
Sergio_G01_CNS-LLF5HT7Y0,cpeeg01,offmed_offstim,20260312_133400,34:36.6,2,5,digit,DIGIT2_OFF,147,43:54.5,557.917087,0,,4,,,,keyboard,digit#2 off,"{""value"":4,""note"":""digit#2 off"",""pd_used"":0}",2,0.008333,120,1
Sergio_G01_CNS-LLF5HT7Y0,cpeeg01,offmed_offstim,20260312_133400,34:36.6,2,5,digit,POSTDIG_FIX2_ON,152,43:54.5,557.917087,1.746877,,,,,,keyboard,after digit#2,"{""note"":""after digit#2""}",2,0.008333,120,1
Sergio_G01_CNS-LLF5HT7Y0,cpeeg01,offmed_offstim,20260312_133400,34:36.6,2,5,digit,POSTDIG_FIX2_OFF,157,43:56.3,559.663964,0.057588,,,,,,keyboard,after digit#2,"{""note"":""after digit#2"",""pd_used"":0}",2,0.008333,120,1
Sergio_G01_CNS-LLF5HT7Y0,cpeeg01,offmed_offstim,20260312_133400,34:36.6,2,5,digit,DIGIT3_ON,143,43:56.3,559.721552,0.556159,,1,,,,keyboard,digit#3 shown,"{""value"":1,""note"":""digit#3 shown"",""pd_used"":1}",2,0.008333,120,1
Sergio_G01_CNS-LLF5HT7Y0,cpeeg01,offmed_offstim,20260312_133400,34:36.6,2,5,digit,DIGIT3_OFF,148,43:56.9,560.27771,0,,1,,,,keyboard,digit#3 off,"{""value"":1,""note"":""digit#3 off"",""pd_used"":0}",2,0.008333,120,1
Sergio_G01_CNS-LLF5HT7Y0,cpeeg01,offmed_offstim,20260312_133400,34:36.6,2,5,digit,POSTDIG_FIX3_ON,153,43:56.9,560.27771,1.994476,,,,,,keyboard,after digit#3,"{""note"":""after digit#3""}",2,0.008333,120,1
Sergio_G01_CNS-LLF5HT7Y0,cpeeg01,offmed_offstim,20260312_133400,34:36.6,2,5,digit,POSTDIG_FIX3_OFF,158,43:58.9,562.272186,0.056987,,,,,,keyboard,after digit#3,"{""note"":""after digit#3"",""pd_used"":0}",2,0.008333,120,1
Sergio_G01_CNS-LLF5HT7Y0,cpeeg01,offmed_offstim,20260312_133400,34:36.6,2,5,digit,DIGIT4_ON,144,43:58.9,562.329173,0.55685,,4,,,,keyboard,digit#4 shown,"{""value"":4,""note"":""digit#4 shown"",""pd_used"":1}",2,0.008333,120,1
Sergio_G01_CNS-LLF5HT7Y0,cpeeg01,offmed_offstim,20260312_133400,34:36.6,2,5,digit,DIGIT4_OFF,149,43:59.5,562.886023,0,,4,,,,keyboard,digit#4 off,"{""value"":4,""note"":""digit#4 off"",""pd_used"":0}",2,0.008333,120,1
Sergio_G01_CNS-LLF5HT7Y0,cpeeg01,offmed_offstim,20260312_133400,34:36.6,2,5,digit,POSTDIG_FIX4_ON,154,43:59.5,562.886023,1.647321,,,,,,keyboard,after digit#4,"{""note"":""after digit#4""}",2,0.008333,120,1
Sergio_G01_CNS-LLF5HT7Y0,cpeeg01,offmed_offstim,20260312_133400,34:36.6,2,5,digit,POSTDIG_FIX4_OFF,159,44:01.2,564.533344,0.056652,,,,,,keyboard,after digit#4,"{""note"":""after digit#4"",""pd_used"":0}",2,0.008333,120,1
Sergio_G01_CNS-LLF5HT7Y0,cpeeg01,offmed_offstim,20260312_133400,34:36.6,2,5,digit,DIGIT5_ON,145,44:01.2,564.589996,0.555835,,0,,,,keyboard,digit#5 shown,"{""value"":0,""note"":""digit#5 shown"",""pd_used"":1}",2,0.008333,120,1
Sergio_G01_CNS-LLF5HT7Y0,cpeeg01,offmed_offstim,20260312_133400,34:36.6,2,5,digit,DIGIT5_OFF,150,44:01.8,565.145831,0,,0,,,,keyboard,digit#5 off,"{""value"":0,""note"":""digit#5 off"",""pd_used"":0}",2,0.008333,120,1
Sergio_G01_CNS-LLF5HT7Y0,cpeeg01,offmed_offstim,20260312_133400,34:36.6,2,5,digit,POSTDIG_FIX5_ON,155,44:01.8,565.145831,3.486438,,,,,,keyboard,after digit#5,"{""note"":""after digit#5""}",2,0.008333,120,1
Sergio_G01_CNS-LLF5HT7Y0,cpeeg01,offmed_offstim,20260312_133400,34:36.6,2,5,digit,POSTDIG_FIX5_OFF,160,44:05.2,568.63227,0.060994,,,,,,keyboard,after digit#5,"{""note"":""after digit#5"",""pd_used"":0}",2,0.008333,120,1
Sergio_G01_CNS-LLF5HT7Y0,cpeeg01,offmed_offstim,20260312_133400,34:36.6,2,5,distractor,DISTRACTOR_ON,50,44:05.3,568.693264,20.058918,,2+4=9,,,,keyboard,,"{""value"":""2+4=9"",""isCorrectTruth"":false,""trueSum"":6,""pd_used"":1}",2,0.008333,120,1
Sergio_G01_CNS-LLF5HT7Y0,cpeeg01,offmed_offstim,20260312_133400,34:36.6,2,5,distractor,DISTRACTOR_OFF,52,44:25.4,588.752182,0,,,,,,keyboard,,"{""pd_used"":0}",2,0.008333,120,1
Sergio_G01_CNS-LLF5HT7Y0,cpeeg01,offmed_offstim,20260312_133400,34:36.6,2,5,distractor,FIX2_ON,60,44:25.4,588.752182,3.388578,,,,,,keyboard,deadline reached,"{""note"":""deadline reached""}",2,0.008333,120,1
Sergio_G01_CNS-LLF5HT7Y0,cpeeg01,offmed_offstim,20260312_133400,34:36.6,2,5,fix2,FIX2_OFF,61,44:28.8,592.14076,0.057272,,,,,,keyboard,,"{""pd_used"":0}",2,0.008333,120,1
Sergio_G01_CNS-LLF5HT7Y0,cpeeg01,offmed_offstim,20260312_133400,34:36.6,2,5,probe,DIGIT_RECALL_LINE_1,161,44:28.8,592.198032,8.555793,,1,,,,keyboard,first recall question,"{""value"":1,""note"":""first recall question"",""pd_used"":1}",2,0.008333,120,1
Sergio_G01_CNS-LLF5HT7Y0,cpeeg01,offmed_offstim,20260312_133400,34:36.6,2,5,probe,PROBE_DIGIT_OK_1,71,44:37.8,600.753825,0.525145,8.566496,slot#1,NaN,,,keyboard,probe_digit#1,"{""value"":""slot#1"",""entered"":null,""rt"":8.56649589992594,""note"":""probe_digit#1""}",2,0.008333,120,1
Sergio_G01_CNS-LLF5HT7Y0,cpeeg01,offmed_offstim,20260312_133400,34:36.6,2,5,probe,DIGIT1_OFF,146,44:37.9,601.27897,0,,0,,,,keyboard,digit#1 off,"{""value"":0,""note"":""digit#1 off"",""pd_used"":0}",2,0.008333,120,1
Sergio_G01_CNS-LLF5HT7Y0,cpeeg01,offmed_offstim,20260312_133400,34:36.6,2,5,probe,POSTDIG_FIX1_ON,151,44:37.9,601.27897,1.748185,,,,,,keyboard,after digit#1,"{""note"":""after digit#1""}",2,0.008333,120,1
Sergio_G01_CNS-LLF5HT7Y0,cpeeg01,offmed_offstim,20260312_133400,34:36.6,2,5,probe,POSTDIG_FIX1_OFF,156,44:39.6,603.027155,0.06243,,,,,,keyboard,after digit#1,"{""note"":""after digit#1"",""pd_used"":0}",2,0.008333,120,1
Sergio_G01_CNS-LLF5HT7Y0,cpeeg01,offmed_offstim,20260312_133400,34:36.6,2,5,probe,DIGIT_RECALL_LINE_2,162,44:39.7,603.089585,3.906894,,2,,,,keyboard,next recall question,"{""value"":2,""note"":""next recall question"",""pd_used"":1}",2,0.008333,120,1
Sergio_G01_CNS-LLF5HT7Y0,cpeeg01,offmed_offstim,20260312_133400,34:36.6,2,5,probe,PROBE_DIGIT_OK_2,71,44:44.2,606.996479,0.697927,14.809149,slot#2,NaN,,,keyboard,probe_digit#2,"{""value"":""slot#2"",""entered"":null,""rt"":14.809149399981834,""note"":""probe_digit#2""}",2,0.008333,120,1
Sergio_G01_CNS-LLF5HT7Y0,cpeeg01,offmed_offstim,20260312_133400,34:36.6,2,5,probe,DIGIT2_OFF,147,44:44.3,607.694406,0,,0,,,,keyboard,digit#2 off,"{""value"":0,""note"":""digit#2 off"",""pd_used"":0}",2,0.008333,120,1
Sergio_G01_CNS-LLF5HT7Y0,cpeeg01,offmed_offstim,20260312_133400,34:36.6,2,5,probe,POSTDIG_FIX2_ON,152,44:44.3,607.694406,2.057765,,,,,,keyboard,after digit#2,"{""note"":""after digit#2""}",2,0.008333,120,1
Sergio_G01_CNS-LLF5HT7Y0,cpeeg01,offmed_offstim,20260312_133400,34:36.6,2,5,probe,POSTDIG_FIX2_OFF,157,44:46.4,609.752171,0.064184,,,,,,keyboard,after digit#2,"{""note"":""after digit#2"",""pd_used"":0}",2,0.008333,120,1
Sergio_G01_CNS-LLF5HT7Y0,cpeeg01,offmed_offstim,20260312_133400,34:36.6,2,5,probe,DIGIT_RECALL_LINE_3,163,44:46.4,609.816355,13.297552,,3,,,,keyboard,next recall question,"{""value"":3,""note"":""next recall question"",""pd_used"":1}",2,0.008333,120,1
Sergio_G01_CNS-LLF5HT7Y0,cpeeg01,offmed_offstim,20260312_133400,34:36.6,2,5,probe,PROBE_DIGIT_OK_3,71,45:00.1,623.113907,0.497179,30.926577,slot#3,NaN,,,keyboard,probe_digit#3,"{""value"":""slot#3"",""entered"":null,""rt"":30.926577499951236,""note"":""probe_digit#3""}",2,0.008333,120,1
Sergio_G01_CNS-LLF5HT7Y0,cpeeg01,offmed_offstim,20260312_133400,34:36.6,2,5,probe,DIGIT3_OFF,148,45:00.2,623.611086,0,,0,,,,keyboard,digit#3 off,"{""value"":0,""note"":""digit#3 off"",""pd_used"":0}",2,0.008333,120,1
Sergio_G01_CNS-LLF5HT7Y0,cpeeg01,offmed_offstim,20260312_133400,34:36.6,2,5,probe,POSTDIG_FIX3_ON,153,45:00.2,623.611086,1.774025,,,,,,keyboard,after digit#3,"{""note"":""after digit#3""}",2,0.008333,120,1
Sergio_G01_CNS-LLF5HT7Y0,cpeeg01,offmed_offstim,20260312_133400,34:36.6,2,5,probe,POSTDIG_FIX3_OFF,158,45:02.0,625.385111,0.059198,,,,,,keyboard,after digit#3,"{""note"":""after digit#3"",""pd_used"":0}",2,0.008333,120,1
Sergio_G01_CNS-LLF5HT7Y0,cpeeg01,offmed_offstim,20260312_133400,34:36.6,2,5,probe,DIGIT_RECALL_LINE_4,164,45:02.1,625.444309,1.306727,,4,,,,keyboard,next recall question,"{""value"":4,""note"":""next recall question"",""pd_used"":1}",2,0.008333,120,1
Sergio_G01_CNS-LLF5HT7Y0,cpeeg01,offmed_offstim,20260312_133400,34:36.6,2,5,probe,PROBE_DIGIT_OK_4,71,45:03.9,626.751035,0.614421,34.563706,slot#4,NaN,,,keyboard,probe_digit#4,"{""value"":""slot#4"",""entered"":null,""rt"":34.563705899985507,""note"":""probe_digit#4""}",2,0.008333,120,1
Sergio_G01_CNS-LLF5HT7Y0,cpeeg01,offmed_offstim,20260312_133400,34:36.6,2,5,probe,DIGIT4_OFF,149,45:04.0,627.365456,0,,0,,,,keyboard,digit#4 off,"{""value"":0,""note"":""digit#4 off"",""pd_used"":0}",2,0.008333,120,1
Sergio_G01_CNS-LLF5HT7Y0,cpeeg01,offmed_offstim,20260312_133400,34:36.6,2,5,probe,POSTDIG_FIX4_ON,154,45:04.0,627.365456,1.683664,,,,,,keyboard,after digit#4,"{""note"":""after digit#4""}",2,0.008333,120,1
Sergio_G01_CNS-LLF5HT7Y0,cpeeg01,offmed_offstim,20260312_133400,34:36.6,2,5,probe,POSTDIG_FIX4_OFF,159,45:05.7,629.04912,0.062146,,,,,,keyboard,after digit#4,"{""note"":""after digit#4"",""pd_used"":0}",2,0.008333,120,1
Sergio_G01_CNS-LLF5HT7Y0,cpeeg01,offmed_offstim,20260312_133400,34:36.6,2,5,probe,DIGIT_RECALL_LINE_5,165,45:05.7,629.111266,2.351174,,5,,,,keyboard,next recall question,"{""value"":5,""note"":""next recall question"",""pd_used"":1}",2,0.008333,120,1
Sergio_G01_CNS-LLF5HT7Y0,cpeeg01,offmed_offstim,20260312_133400,34:36.6,2,5,probe,PROBE_DIGIT_OK_5,71,45:08.5,631.462441,0.504987,39.275111,slot#5,NaN,,,keyboard,probe_digit#5,"{""value"":""slot#5"",""entered"":null,""rt"":39.275111099937931,""note"":""probe_digit#5""}",2,0.008333,120,1
Sergio_G01_CNS-LLF5HT7Y0,cpeeg01,offmed_offstim,20260312_133400,34:36.6,2,5,probe,DIGIT5_OFF,150,45:08.6,631.967428,0,,0,,,,keyboard,digit#5 off,"{""value"":0,""note"":""digit#5 off"",""pd_used"":0}",2,0.008333,120,1
Sergio_G01_CNS-LLF5HT7Y0,cpeeg01,offmed_offstim,20260312_133400,34:36.6,2,5,probe,POSTDIG_FIX5_ON,155,45:08.6,631.967428,3.505917,,,,,,keyboard,after digit#5,"{""note"":""after digit#5""}",2,0.008333,120,1
Sergio_G01_CNS-LLF5HT7Y0,cpeeg01,offmed_offstim,20260312_133400,34:36.6,2,5,probe,POSTDIG_FIX5_OFF,160,45:12.1,635.473345,0.05426,,,,,,keyboard,after digit#5,"{""note"":""after digit#5"",""pd_used"":0}",2,0.008333,120,1
Sergio_G01_CNS-LLF5HT7Y0,cpeeg01,offmed_offstim,20260312_133400,34:36.6,2,5,probe,PROBE_DONE,73,45:12.1,635.527604,0.002321,,,,,,keyboard,probe complete,"{""value"":"""",""note"":""probe complete""}",2,0.008333,120,1
Sergio_G01_CNS-LLF5HT7Y0,cpeeg01,offmed_offstim,20260312_133400,34:36.6,2,5,probe,TRIAL_END,21,45:12.1,635.529925,0.046003,,,,,,keyboard,,{},2,0.008333,120,1
Sergio_G01_CNS-LLF5HT7Y0,cpeeg01,offmed_offstim,20260312_133400,34:36.6,2,6,probe,TRIAL_CHANGE,22,45:12.1,635.575928,0.001907,,,,,,keyboard,trial transition,"{""note"":""trial transition""}",2,0.008333,120,1
Sergio_G01_CNS-LLF5HT7Y0,cpeeg01,offmed_offstim,20260312_133400,34:36.6,2,6,probe,TRIAL_START,20,45:12.2,635.577835,0.059636,,,,,,keyboard,,{},2,0.008333,120,1
Sergio_G01_CNS-LLF5HT7Y0,cpeeg01,offmed_offstim,20260312_133400,34:36.6,2,6,fix1,FIX1_ON,30,45:12.3,635.637472,3.207313,,,,,,keyboard,,"{""pd_used"":0}",2,0.008333,120,1
Sergio_G01_CNS-LLF5HT7Y0,cpeeg01,offmed_offstim,20260312_133400,34:36.6,2,6,fix1,FIX1_OFF,31,45:15.5,638.844784,0.056394,,,,,,keyboard,,"{""pd_used"":0}",2,0.008333,120,1
Sergio_G01_CNS-LLF5HT7Y0,cpeeg01,offmed_offstim,20260312_133400,34:36.6,2,6,digit,DIGIT1_ON,141,45:15.5,638.901178,0.556356,,4,,,,keyboard,digit#1 shown,"{""value"":4,""note"":""digit#1 shown"",""pd_used"":1}",2,0.008333,120,1
Sergio_G01_CNS-LLF5HT7Y0,cpeeg01,offmed_offstim,20260312_133400,34:36.6,2,6,digit,DIGIT1_OFF,146,45:16.1,639.457535,0,,4,,,,keyboard,digit#1 off,"{""value"":4,""note"":""digit#1 off"",""pd_used"":0}",2,0.008333,120,1
Sergio_G01_CNS-LLF5HT7Y0,cpeeg01,offmed_offstim,20260312_133400,34:36.6,2,6,digit,POSTDIG_FIX1_ON,151,45:16.1,639.457535,1.870802,,,,,,keyboard,after digit#1,"{""note"":""after digit#1""}",2,0.008333,120,1
Sergio_G01_CNS-LLF5HT7Y0,cpeeg01,offmed_offstim,20260312_133400,34:36.6,2,6,digit,POSTDIG_FIX1_OFF,156,45:17.9,641.328337,0.056722,,,,,,keyboard,after digit#1,"{""note"":""after digit#1"",""pd_used"":0}",2,0.008333,120,1
Sergio_G01_CNS-LLF5HT7Y0,cpeeg01,offmed_offstim,20260312_133400,34:36.6,2,6,digit,DIGIT2_ON,142,45:18.0,641.385058,0.555992,,6,,,,keyboard,digit#2 shown,"{""value"":6,""note"":""digit#2 shown"",""pd_used"":1}",2,0.008333,120,1
Sergio_G01_CNS-LLF5HT7Y0,cpeeg01,offmed_offstim,20260312_133400,34:36.6,2,6,digit,DIGIT2_OFF,147,45:18.6,641.94105,0,,6,,,,keyboard,digit#2 off,"{""value"":6,""note"":""digit#2 off"",""pd_used"":0}",2,0.008333,120,1
Sergio_G01_CNS-LLF5HT7Y0,cpeeg01,offmed_offstim,20260312_133400,34:36.6,2,6,digit,POSTDIG_FIX2_ON,152,45:18.6,641.94105,1.703347,,,,,,keyboard,after digit#2,"{""note"":""after digit#2""}",2,0.008333,120,1
Sergio_G01_CNS-LLF5HT7Y0,cpeeg01,offmed_offstim,20260312_133400,34:36.6,2,6,digit,POSTDIG_FIX2_OFF,157,45:20.3,643.644397,0.056528,,,,,,keyboard,after digit#2,"{""note"":""after digit#2"",""pd_used"":0}",2,0.008333,120,1
Sergio_G01_CNS-LLF5HT7Y0,cpeeg01,offmed_offstim,20260312_133400,34:36.6,2,6,digit,DIGIT3_ON,143,45:20.3,643.700925,0.556609,,1,,,,keyboard,digit#3 shown,"{""value"":1,""note"":""digit#3 shown"",""pd_used"":1}",2,0.008333,120,1
Sergio_G01_CNS-LLF5HT7Y0,cpeeg01,offmed_offstim,20260312_133400,34:36.6,2,6,digit,DIGIT3_OFF,148,45:20.9,644.257534,0,,1,,,,keyboard,digit#3 off,"{""value"":1,""note"":""digit#3 off"",""pd_used"":0}",2,0.008333,120,1
Sergio_G01_CNS-LLF5HT7Y0,cpeeg01,offmed_offstim,20260312_133400,34:36.6,2,6,digit,POSTDIG_FIX3_ON,153,45:20.9,644.257534,1.700488,,,,,,keyboard,after digit#3,"{""note"":""after digit#3""}",2,0.008333,120,1
Sergio_G01_CNS-LLF5HT7Y0,cpeeg01,offmed_offstim,20260312_133400,34:36.6,2,6,digit,POSTDIG_FIX3_OFF,158,45:22.6,645.958022,0.057007,,,,,,keyboard,after digit#3,"{""note"":""after digit#3"",""pd_used"":0}",2,0.008333,120,1
Sergio_G01_CNS-LLF5HT7Y0,cpeeg01,offmed_offstim,20260312_133400,34:36.6,2,6,digit,DIGIT4_ON,144,45:22.6,646.015029,0.556439,,8,,,,keyboard,digit#4 shown,"{""value"":8,""note"":""digit#4 shown"",""pd_used"":1}",2,0.008333,120,1
Sergio_G01_CNS-LLF5HT7Y0,cpeeg01,offmed_offstim,20260312_133400,34:36.6,2,6,digit,DIGIT4_OFF,149,45:23.2,646.571468,0,,8,,,,keyboard,digit#4 off,"{""value"":8,""note"":""digit#4 off"",""pd_used"":0}",2,0.008333,120,1
Sergio_G01_CNS-LLF5HT7Y0,cpeeg01,offmed_offstim,20260312_133400,34:36.6,2,6,digit,POSTDIG_FIX4_ON,154,45:23.2,646.571468,1.578693,,,,,,keyboard,after digit#4,"{""note"":""after digit#4""}",2,0.008333,120,1
Sergio_G01_CNS-LLF5HT7Y0,cpeeg01,offmed_offstim,20260312_133400,34:36.6,2,6,digit,POSTDIG_FIX4_OFF,159,45:24.8,648.150161,0.056541,,,,,,keyboard,after digit#4,"{""note"":""after digit#4"",""pd_used"":0}",2,0.008333,120,1
Sergio_G01_CNS-LLF5HT7Y0,cpeeg01,offmed_offstim,20260312_133400,34:36.6,2,6,digit,DIGIT5_ON,145,45:24.8,648.206702,0.554931,,6,,,,keyboard,digit#5 shown,"{""value"":6,""note"":""digit#5 shown"",""pd_used"":1}",2,0.008333,120,1
Sergio_G01_CNS-LLF5HT7Y0,cpeeg01,offmed_offstim,20260312_133400,34:36.6,2,6,digit,DIGIT5_OFF,150,45:25.4,648.761633,0,,6,,,,keyboard,digit#5 off,"{""value"":6,""note"":""digit#5 off"",""pd_used"":0}",2,0.008333,120,1
Sergio_G01_CNS-LLF5HT7Y0,cpeeg01,offmed_offstim,20260312_133400,34:36.6,2,6,digit,POSTDIG_FIX5_ON,155,45:25.4,648.761633,3.54302,,,,,,keyboard,after digit#5,"{""note"":""after digit#5""}",2,0.008333,120,1
Sergio_G01_CNS-LLF5HT7Y0,cpeeg01,offmed_offstim,20260312_133400,34:36.6,2,6,digit,POSTDIG_FIX5_OFF,160,45:28.9,652.304652,0.056665,,,,,,keyboard,after digit#5,"{""note"":""after digit#5"",""pd_used"":0}",2,0.008333,120,1
Sergio_G01_CNS-LLF5HT7Y0,cpeeg01,offmed_offstim,20260312_133400,34:36.6,2,6,distractor,DISTRACTOR_ON,50,45:29.0,652.361318,20.038424,,7+5=13,,,,keyboard,,"{""value"":""7+5=13"",""isCorrectTruth"":false,""trueSum"":12,""pd_used"":1}",2,0.008333,120,1
Sergio_G01_CNS-LLF5HT7Y0,cpeeg01,offmed_offstim,20260312_133400,34:36.6,2,6,distractor,DISTRACTOR_OFF,52,45:49.0,672.399742,0,,,,,,keyboard,,"{""pd_used"":0}",2,0.008333,120,1
Sergio_G01_CNS-LLF5HT7Y0,cpeeg01,offmed_offstim,20260312_133400,34:36.6,2,6,distractor,FIX2_ON,60,45:49.0,672.399742,3.297644,,,,,,keyboard,deadline reached,"{""note"":""deadline reached""}",2,0.008333,120,1
Sergio_G01_CNS-LLF5HT7Y0,cpeeg01,offmed_offstim,20260312_133400,34:36.6,2,6,fix2,FIX2_OFF,61,45:52.3,675.697386,0.055477,,,,,,keyboard,,"{""pd_used"":0}",2,0.008333,120,1
Sergio_G01_CNS-LLF5HT7Y0,cpeeg01,offmed_offstim,20260312_133400,34:36.6,2,6,probe,DIGIT_RECALL_LINE_1,161,45:52.4,675.752863,13.988519,,1,,,,keyboard,first recall question,"{""value"":1,""note"":""first recall question"",""pd_used"":1}",2,0.008333,120,1
Sergio_G01_CNS-LLF5HT7Y0,cpeeg01,offmed_offstim,20260312_133400,34:36.6,2,6,probe,PROBE_DIGIT_OK_1,71,46:06.8,689.741382,0.509785,13.997194,slot#1,NaN,,,keyboard,probe_digit#1,"{""value"":""slot#1"",""entered"":null,""rt"":13.997193699935451,""note"":""probe_digit#1""}",2,0.008333,120,1
Sergio_G01_CNS-LLF5HT7Y0,cpeeg01,offmed_offstim,20260312_133400,34:36.6,2,6,probe,DIGIT1_OFF,146,46:06.9,690.251167,0,,6,,,,keyboard,digit#1 off,"{""value"":6,""note"":""digit#1 off"",""pd_used"":0}",2,0.008333,120,1
Sergio_G01_CNS-LLF5HT7Y0,cpeeg01,offmed_offstim,20260312_133400,34:36.6,2,6,probe,POSTDIG_FIX1_ON,151,46:06.9,690.251167,1.992016,,,,,,keyboard,after digit#1,"{""note"":""after digit#1""}",2,0.008333,120,1
Sergio_G01_CNS-LLF5HT7Y0,cpeeg01,offmed_offstim,20260312_133400,34:36.6,2,6,probe,POSTDIG_FIX1_OFF,156,46:08.9,692.243182,0.063939,,,,,,keyboard,after digit#1,"{""note"":""after digit#1"",""pd_used"":0}",2,0.008333,120,1
Sergio_G01_CNS-LLF5HT7Y0,cpeeg01,offmed_offstim,20260312_133400,34:36.6,2,6,probe,DIGIT_RECALL_LINE_2,162,46:08.9,692.307122,6.635225,,2,,,,keyboard,next recall question,"{""value"":2,""note"":""next recall question"",""pd_used"":1}",2,0.008333,120,1
Sergio_G01_CNS-LLF5HT7Y0,cpeeg01,offmed_offstim,20260312_133400,34:36.6,2,6,probe,PROBE_DIGIT_OK_2,71,46:15.9,698.942346,0.446792,23.198158,slot#2,NaN,,,keyboard,probe_digit#2,"{""value"":""slot#2"",""entered"":null,""rt"":23.198158000013791,""note"":""probe_digit#2""}",2,0.008333,120,1
Sergio_G01_CNS-LLF5HT7Y0,cpeeg01,offmed_offstim,20260312_133400,34:36.6,2,6,probe,DIGIT2_OFF,147,46:16.0,699.389139,0,,6,,,,keyboard,digit#2 off,"{""value"":6,""note"":""digit#2 off"",""pd_used"":0}",2,0.008333,120,1
Sergio_G01_CNS-LLF5HT7Y0,cpeeg01,offmed_offstim,20260312_133400,34:36.6,2,6,probe,POSTDIG_FIX2_ON,152,46:16.0,699.389139,1.960397,,,,,,keyboard,after digit#2,"{""note"":""after digit#2""}",2,0.008333,120,1
Sergio_G01_CNS-LLF5HT7Y0,cpeeg01,offmed_offstim,20260312_133400,34:36.6,2,6,probe,POSTDIG_FIX2_OFF,157,46:18.0,701.349535,0.062282,,,,,,keyboard,after digit#2,"{""note"":""after digit#2"",""pd_used"":0}",2,0.008333,120,1
Sergio_G01_CNS-LLF5HT7Y0,cpeeg01,offmed_offstim,20260312_133400,34:36.6,2,6,probe,DIGIT_RECALL_LINE_3,163,46:18.0,701.411817,5.581683,,3,,,,keyboard,next recall question,"{""value"":3,""note"":""next recall question"",""pd_used"":1}",2,0.008333,120,1
Sergio_G01_CNS-LLF5HT7Y0,cpeeg01,offmed_offstim,20260312_133400,34:36.6,2,6,probe,PROBE_DIGIT_OK_3,71,46:24.0,706.9935,0.464804,31.249312,slot#3,NaN,,,keyboard,probe_digit#3,"{""value"":""slot#3"",""entered"":null,""rt"":31.249311699997634,""note"":""probe_digit#3""}",2,0.008333,120,1
Sergio_G01_CNS-LLF5HT7Y0,cpeeg01,offmed_offstim,20260312_133400,34:36.6,2,6,probe,DIGIT3_OFF,148,46:24.1,707.458304,0,,6,,,,keyboard,digit#3 off,"{""value"":6,""note"":""digit#3 off"",""pd_used"":0}",2,0.008333,120,1
Sergio_G01_CNS-LLF5HT7Y0,cpeeg01,offmed_offstim,20260312_133400,34:36.6,2,6,probe,POSTDIG_FIX3_ON,153,46:24.1,707.458304,1.994797,,,,,,keyboard,after digit#3,"{""note"":""after digit#3""}",2,0.008333,120,1
Sergio_G01_CNS-LLF5HT7Y0,cpeeg01,offmed_offstim,20260312_133400,34:36.6,2,6,probe,POSTDIG_FIX3_OFF,158,46:26.1,709.453101,0.063305,,,,,,keyboard,after digit#3,"{""note"":""after digit#3"",""pd_used"":0}",2,0.008333,120,1
Sergio_G01_CNS-LLF5HT7Y0,cpeeg01,offmed_offstim,20260312_133400,34:36.6,2,6,probe,DIGIT_RECALL_LINE_4,164,46:26.1,709.516407,3.764373,,4,,,,keyboard,next recall question,"{""value"":4,""note"":""next recall question"",""pd_used"":1}",2,0.008333,120,1
Sergio_G01_CNS-LLF5HT7Y0,cpeeg01,offmed_offstim,20260312_133400,34:36.6,2,6,probe,PROBE_DIGIT_OK_4,71,46:30.3,713.28078,0.526826,37.536591,slot#4,NaN,,,keyboard,probe_digit#4,"{""value"":""slot#4"",""entered"":null,""rt"":37.536591299925931,""note"":""probe_digit#4""}",2,0.008333,120,1
Sergio_G01_CNS-LLF5HT7Y0,cpeeg01,offmed_offstim,20260312_133400,34:36.6,2,6,probe,DIGIT4_OFF,149,46:30.4,713.807605,0,,6,,,,keyboard,digit#4 off,"{""value"":6,""note"":""digit#4 off"",""pd_used"":0}",2,0.008333,120,1
Sergio_G01_CNS-LLF5HT7Y0,cpeeg01,offmed_offstim,20260312_133400,34:36.6,2,6,probe,POSTDIG_FIX4_ON,154,46:30.4,713.807605,1.767084,,,,,,keyboard,after digit#4,"{""note"":""after digit#4""}",2,0.008333,120,1
Sergio_G01_CNS-LLF5HT7Y0,cpeeg01,offmed_offstim,20260312_133400,34:36.6,2,6,probe,POSTDIG_FIX4_OFF,159,46:32.2,715.574689,0.065265,,,,,,keyboard,after digit#4,"{""note"":""after digit#4"",""pd_used"":0}",2,0.008333,120,1
Sergio_G01_CNS-LLF5HT7Y0,cpeeg01,offmed_offstim,20260312_133400,34:36.6,2,6,probe,DIGIT_RECALL_LINE_5,165,46:32.3,715.639954,4.852155,,5,,,,keyboard,next recall question,"{""value"":5,""note"":""next recall question"",""pd_used"":1}",2,0.008333,120,1
Sergio_G01_CNS-LLF5HT7Y0,cpeeg01,offmed_offstim,20260312_133400,34:36.6,2,6,probe,PROBE_DIGIT_OK_5,71,46:37.4,720.49211,0.406115,44.747921,slot#5,NaN,,,keyboard,probe_digit#5,"{""value"":""slot#5"",""entered"":null,""rt"":44.747921400005,""note"":""probe_digit#5""}",2,0.008333,120,1
Sergio_G01_CNS-LLF5HT7Y0,cpeeg01,offmed_offstim,20260312_133400,34:36.6,2,6,probe,DIGIT5_OFF,150,46:37.5,720.898224,0,,6,,,,keyboard,digit#5 off,"{""value"":6,""note"":""digit#5 off"",""pd_used"":0}",2,0.008333,120,1
Sergio_G01_CNS-LLF5HT7Y0,cpeeg01,offmed_offstim,20260312_133400,34:36.6,2,6,probe,POSTDIG_FIX5_ON,155,46:37.5,720.898224,3.502832,,,,,,keyboard,after digit#5,"{""note"":""after digit#5""}",2,0.008333,120,1
Sergio_G01_CNS-LLF5HT7Y0,cpeeg01,offmed_offstim,20260312_133400,34:36.6,2,6,probe,POSTDIG_FIX5_OFF,160,46:41.0,724.401057,0.05399,,,,,,keyboard,after digit#5,"{""note"":""after digit#5"",""pd_used"":0}",2,0.008333,120,1
Sergio_G01_CNS-LLF5HT7Y0,cpeeg01,offmed_offstim,20260312_133400,34:36.6,2,6,probe,PROBE_DONE,73,46:41.0,724.455046,0.001687,,,,,,keyboard,probe complete,"{""value"":"""",""note"":""probe complete""}",2,0.008333,120,1
Sergio_G01_CNS-LLF5HT7Y0,cpeeg01,offmed_offstim,20260312_133400,34:36.6,2,6,probe,TRIAL_END,21,46:41.0,724.456734,0.04505,,,,,,keyboard,,{},2,0.008333,120,1
Sergio_G01_CNS-LLF5HT7Y0,cpeeg01,offmed_offstim,20260312_133400,34:36.6,2,7,probe,TRIAL_CHANGE,22,46:41.1,724.501783,0.002608,,,,,,keyboard,trial transition,"{""note"":""trial transition""}",2,0.008333,120,1
Sergio_G01_CNS-LLF5HT7Y0,cpeeg01,offmed_offstim,20260312_133400,34:36.6,2,7,probe,TRIAL_START,20,46:41.1,724.504391,0.05998,,,,,,keyboard,,{},2,0.008333,120,1
Sergio_G01_CNS-LLF5HT7Y0,cpeeg01,offmed_offstim,20260312_133400,34:36.6,2,7,fix1,FIX1_ON,30,46:41.2,724.564371,3.121607,,,,,,keyboard,,"{""pd_used"":0}",2,0.008333,120,1
Sergio_G01_CNS-LLF5HT7Y0,cpeeg01,offmed_offstim,20260312_133400,34:36.6,2,7,fix1,FIX1_OFF,31,46:44.3,727.685978,0.056816,,,,,,keyboard,,"{""pd_used"":0}",2,0.008333,120,1
Sergio_G01_CNS-LLF5HT7Y0,cpeeg01,offmed_offstim,20260312_133400,34:36.6,2,7,digit,DIGIT1_ON,141,46:44.4,727.742794,0.556122,,8,,,,keyboard,digit#1 shown,"{""value"":8,""note"":""digit#1 shown"",""pd_used"":1}",2,0.008333,120,1
Sergio_G01_CNS-LLF5HT7Y0,cpeeg01,offmed_offstim,20260312_133400,34:36.6,2,7,digit,DIGIT1_OFF,146,46:44.9,728.298916,0,,8,,,,keyboard,digit#1 off,"{""value"":8,""note"":""digit#1 off"",""pd_used"":0}",2,0.008333,120,1
Sergio_G01_CNS-LLF5HT7Y0,cpeeg01,offmed_offstim,20260312_133400,34:36.6,2,7,digit,POSTDIG_FIX1_ON,151,46:44.9,728.298916,1.882942,,,,,,keyboard,after digit#1,"{""note"":""after digit#1""}",2,0.008333,120,1
Sergio_G01_CNS-LLF5HT7Y0,cpeeg01,offmed_offstim,20260312_133400,34:36.6,2,7,digit,POSTDIG_FIX1_OFF,156,46:46.8,730.181858,0.05621,,,,,,keyboard,after digit#1,"{""note"":""after digit#1"",""pd_used"":0}",2,0.008333,120,1
Sergio_G01_CNS-LLF5HT7Y0,cpeeg01,offmed_offstim,20260312_133400,34:36.6,2,7,digit,DIGIT2_ON,142,46:46.9,730.238068,0.555731,,4,,,,keyboard,digit#2 shown,"{""value"":4,""note"":""digit#2 shown"",""pd_used"":1}",2,0.008333,120,1
Sergio_G01_CNS-LLF5HT7Y0,cpeeg01,offmed_offstim,20260312_133400,34:36.6,2,7,digit,DIGIT2_OFF,147,46:47.4,730.793799,0,,4,,,,keyboard,digit#2 off,"{""value"":4,""note"":""digit#2 off"",""pd_used"":0}",2,0.008333,120,1
Sergio_G01_CNS-LLF5HT7Y0,cpeeg01,offmed_offstim,20260312_133400,34:36.6,2,7,digit,POSTDIG_FIX2_ON,152,46:47.4,730.793799,1.920597,,,,,,keyboard,after digit#2,"{""note"":""after digit#2""}",2,0.008333,120,1
Sergio_G01_CNS-LLF5HT7Y0,cpeeg01,offmed_offstim,20260312_133400,34:36.6,2,7,digit,POSTDIG_FIX2_OFF,157,46:49.3,732.714396,0.055743,,,,,,keyboard,after digit#2,"{""note"":""after digit#2"",""pd_used"":0}",2,0.008333,120,1
Sergio_G01_CNS-LLF5HT7Y0,cpeeg01,offmed_offstim,20260312_133400,34:36.6,2,7,digit,DIGIT3_ON,143,46:49.4,732.770139,0.554909,,2,,,,keyboard,digit#3 shown,"{""value"":2,""note"":""digit#3 shown"",""pd_used"":1}",2,0.008333,120,1
Sergio_G01_CNS-LLF5HT7Y0,cpeeg01,offmed_offstim,20260312_133400,34:36.6,2,7,digit,DIGIT3_OFF,148,46:49.9,733.325048,0,,2,,,,keyboard,digit#3 off,"{""value"":2,""note"":""digit#3 off"",""pd_used"":0}",2,0.008333,120,1
Sergio_G01_CNS-LLF5HT7Y0,cpeeg01,offmed_offstim,20260312_133400,34:36.6,2,7,digit,POSTDIG_FIX3_ON,153,46:49.9,733.325048,1.785888,,,,,,keyboard,after digit#3,"{""note"":""after digit#3""}",2,0.008333,120,1
Sergio_G01_CNS-LLF5HT7Y0,cpeeg01,offmed_offstim,20260312_133400,34:36.6,2,7,digit,POSTDIG_FIX3_OFF,158,46:51.7,735.110936,0.056911,,,,,,keyboard,after digit#3,"{""note"":""after digit#3"",""pd_used"":0}",2,0.008333,120,1
Sergio_G01_CNS-LLF5HT7Y0,cpeeg01,offmed_offstim,20260312_133400,34:36.6,2,7,digit,DIGIT4_ON,144,46:51.8,735.167847,0.555769,,1,,,,keyboard,digit#4 shown,"{""value"":1,""note"":""digit#4 shown"",""pd_used"":1}",2,0.008333,120,1
Sergio_G01_CNS-LLF5HT7Y0,cpeeg01,offmed_offstim,20260312_133400,34:36.6,2,7,digit,DIGIT4_OFF,149,46:52.3,735.723616,0,,1,,,,keyboard,digit#4 off,"{""value"":1,""note"":""digit#4 off"",""pd_used"":0}",2,0.008333,120,1
Sergio_G01_CNS-LLF5HT7Y0,cpeeg01,offmed_offstim,20260312_133400,34:36.6,2,7,digit,POSTDIG_FIX4_ON,154,46:52.3,735.723616,1.886853,,,,,,keyboard,after digit#4,"{""note"":""after digit#4""}",2,0.008333,120,1
Sergio_G01_CNS-LLF5HT7Y0,cpeeg01,offmed_offstim,20260312_133400,34:36.6,2,7,digit,POSTDIG_FIX4_OFF,159,46:54.2,737.610469,0.056947,,,,,,keyboard,after digit#4,"{""note"":""after digit#4"",""pd_used"":0}",2,0.008333,120,1
Sergio_G01_CNS-LLF5HT7Y0,cpeeg01,offmed_offstim,20260312_133400,34:36.6,2,7,digit,DIGIT5_ON,145,46:54.3,737.667417,0.556628,,7,,,,keyboard,digit#5 shown,"{""value"":7,""note"":""digit#5 shown"",""pd_used"":1}",2,0.008333,120,1
Sergio_G01_CNS-LLF5HT7Y0,cpeeg01,offmed_offstim,20260312_133400,34:36.6,2,7,digit,DIGIT5_OFF,150,46:54.8,738.224044,0,,7,,,,keyboard,digit#5 off,"{""value"":7,""note"":""digit#5 off"",""pd_used"":0}",2,0.008333,120,1
Sergio_G01_CNS-LLF5HT7Y0,cpeeg01,offmed_offstim,20260312_133400,34:36.6,2,7,digit,POSTDIG_FIX5_ON,155,46:54.8,738.224044,3.186581,,,,,,keyboard,after digit#5,"{""note"":""after digit#5""}",2,0.008333,120,1
Sergio_G01_CNS-LLF5HT7Y0,cpeeg01,offmed_offstim,20260312_133400,34:36.6,2,7,digit,POSTDIG_FIX5_OFF,160,46:58.0,741.410625,0.057415,,,,,,keyboard,after digit#5,"{""note"":""after digit#5"",""pd_used"":0}",2,0.008333,120,1
Sergio_G01_CNS-LLF5HT7Y0,cpeeg01,offmed_offstim,20260312_133400,34:36.6,2,7,distractor,DISTRACTOR_ON,50,46:58.1,741.46804,13.510676,,6+1=7,,,,keyboard,,"{""value"":""6+1=7"",""isCorrectTruth"":true,""trueSum"":7,""pd_used"":1}",2,0.008333,120,1
Sergio_G01_CNS-LLF5HT7Y0,cpeeg01,offmed_offstim,20260312_133400,34:36.6,2,7,distractor,DISTRACTOR_ANS,51,47:12.0,754.978716,0,13.510676,6+1=7,F,0,,keyboard,key= (False),"{""value"":""6+1=7"",""entered"":""F"",""rt"":13.510675700032152,""correct"":0,""note"":""key= (False)"",""truth"":true,""trueSum"":7,""shownSum"":7,""a"":6,""b"":1}",2,0.008333,120,1
Sergio_G01_CNS-LLF5HT7Y0,cpeeg01,offmed_offstim,20260312_133400,34:36.6,2,7,distractor,ANS_WRONG,200,47:12.0,754.978716,0.476146,,,,,,keyboard,,{},2,0.008333,120,1
Sergio_G01_CNS-LLF5HT7Y0,cpeeg01,offmed_offstim,20260312_133400,34:36.6,2,7,distractor,DISTRACTOR_OFF,52,47:12.1,755.454861,0,,,,,,keyboard,,"{""pd_used"":0}",2,0.008333,120,1
Sergio_G01_CNS-LLF5HT7Y0,cpeeg01,offmed_offstim,20260312_133400,34:36.6,2,7,distractor,FIX2_ON,60,47:12.1,755.454861,3.533104,,,,,,keyboard,immediate after response,"{""note"":""immediate after response""}",2,0.008333,120,1
Sergio_G01_CNS-LLF5HT7Y0,cpeeg01,offmed_offstim,20260312_133400,34:36.6,2,7,fix2,FIX2_OFF,61,47:15.6,758.987965,0.05484,,,,,,keyboard,,"{""pd_used"":0}",2,0.008333,120,1
Sergio_G01_CNS-LLF5HT7Y0,cpeeg01,offmed_offstim,20260312_133400,34:36.6,2,7,probe,DIGIT_RECALL_LINE_1,161,47:15.7,759.042805,8.422645,,1,,,,keyboard,first recall question,"{""value"":1,""note"":""first recall question"",""pd_used"":1}",2,0.008333,120,1
Sergio_G01_CNS-LLF5HT7Y0,cpeeg01,offmed_offstim,20260312_133400,34:36.6,2,7,probe,PROBE_DIGIT_OK_1,71,47:24.4,767.46545,0.461774,8.431685,slot#1,NaN,,,keyboard,probe_digit#1,"{""value"":""slot#1"",""entered"":null,""rt"":8.4316849999595433,""note"":""probe_digit#1""}",2,0.008333,120,1
Sergio_G01_CNS-LLF5HT7Y0,cpeeg01,offmed_offstim,20260312_133400,34:36.6,2,7,probe,DIGIT1_OFF,146,47:24.5,767.927224,0,,7,,,,keyboard,digit#1 off,"{""value"":7,""note"":""digit#1 off"",""pd_used"":0}",2,0.008333,120,1
Sergio_G01_CNS-LLF5HT7Y0,cpeeg01,offmed_offstim,20260312_133400,34:36.6,2,7,probe,POSTDIG_FIX1_ON,151,47:24.5,767.927224,1.872905,,,,,,keyboard,after digit#1,"{""note"":""after digit#1""}",2,0.008333,120,1
Sergio_G01_CNS-LLF5HT7Y0,cpeeg01,offmed_offstim,20260312_133400,34:36.6,2,7,probe,POSTDIG_FIX1_OFF,156,47:26.4,769.800129,0.064935,,,,,,keyboard,after digit#1,"{""note"":""after digit#1"",""pd_used"":0}",2,0.008333,120,1
Sergio_G01_CNS-LLF5HT7Y0,cpeeg01,offmed_offstim,20260312_133400,34:36.6,2,7,probe,DIGIT_RECALL_LINE_2,162,47:26.5,769.865064,3.312941,,2,,,,keyboard,next recall question,"{""value"":2,""note"":""next recall question"",""pd_used"":1}",2,0.008333,120,1
Sergio_G01_CNS-LLF5HT7Y0,cpeeg01,offmed_offstim,20260312_133400,34:36.6,2,7,probe,PROBE_DIGIT_OK_2,71,47:30.2,773.178004,0.479412,14.14424,slot#2,NaN,,,keyboard,probe_digit#2,"{""value"":""slot#2"",""entered"":null,""rt"":14.144239900051616,""note"":""probe_digit#2""}",2,0.008333,120,1
Sergio_G01_CNS-LLF5HT7Y0,cpeeg01,offmed_offstim,20260312_133400,34:36.6,2,7,probe,DIGIT2_OFF,147,47:30.3,773.657416,0,,7,,,,keyboard,digit#2 off,"{""value"":7,""note"":""digit#2 off"",""pd_used"":0}",2,0.008333,120,1
Sergio_G01_CNS-LLF5HT7Y0,cpeeg01,offmed_offstim,20260312_133400,34:36.6,2,7,probe,POSTDIG_FIX2_ON,152,47:30.3,773.657416,1.759482,,,,,,keyboard,after digit#2,"{""note"":""after digit#2""}",2,0.008333,120,1
Sergio_G01_CNS-LLF5HT7Y0,cpeeg01,offmed_offstim,20260312_133400,34:36.6,2,7,probe,POSTDIG_FIX2_OFF,157,47:32.0,775.416898,0.062247,,,,,,keyboard,after digit#2,"{""note"":""after digit#2"",""pd_used"":0}",2,0.008333,120,1
Sergio_G01_CNS-LLF5HT7Y0,cpeeg01,offmed_offstim,20260312_133400,34:36.6,2,7,probe,DIGIT_RECALL_LINE_3,163,47:32.1,775.479144,3.054433,,3,,,,keyboard,next recall question,"{""value"":3,""note"":""next recall question"",""pd_used"":1}",2,0.008333,120,1
Sergio_G01_CNS-LLF5HT7Y0,cpeeg01,offmed_offstim,20260312_133400,34:36.6,2,7,probe,PROBE_DIGIT_OK_3,71,47:35.6,778.533577,0.532967,19.499812,slot#3,NaN,,,keyboard,probe_digit#3,"{""value"":""slot#3"",""entered"":null,""rt"":19.499812499969266,""note"":""probe_digit#3""}",2,0.008333,120,1
Sergio_G01_CNS-LLF5HT7Y0,cpeeg01,offmed_offstim,20260312_133400,34:36.6,2,7,probe,DIGIT3_OFF,148,47:35.7,779.066544,0,,7,,,,keyboard,digit#3 off,"{""value"":7,""note"":""digit#3 off"",""pd_used"":0}",2,0.008333,120,1
Sergio_G01_CNS-LLF5HT7Y0,cpeeg01,offmed_offstim,20260312_133400,34:36.6,2,7,probe,POSTDIG_FIX3_ON,153,47:35.7,779.066544,1.991963,,,,,,keyboard,after digit#3,"{""note"":""after digit#3""}",2,0.008333,120,1
Sergio_G01_CNS-LLF5HT7Y0,cpeeg01,offmed_offstim,20260312_133400,34:36.6,2,7,probe,POSTDIG_FIX3_OFF,158,47:37.7,781.058507,0.064919,,,,,,keyboard,after digit#3,"{""note"":""after digit#3"",""pd_used"":0}",2,0.008333,120,1
Sergio_G01_CNS-LLF5HT7Y0,cpeeg01,offmed_offstim,20260312_133400,34:36.6,2,7,probe,DIGIT_RECALL_LINE_4,164,47:37.7,781.123426,2.335078,,4,,,,keyboard,next recall question,"{""value"":4,""note"":""next recall question"",""pd_used"":1}",2,0.008333,120,1
Sergio_G01_CNS-LLF5HT7Y0,cpeeg01,offmed_offstim,20260312_133400,34:36.6,2,7,probe,PROBE_DIGIT_OK_4,71,47:40.5,783.458503,0.501825,24.424739,slot#4,NaN,,,keyboard,probe_digit#4,"{""value"":""slot#4"",""entered"":null,""rt"":24.424738900037482,""note"":""probe_digit#4""}",2,0.008333,120,1
Sergio_G01_CNS-LLF5HT7Y0,cpeeg01,offmed_offstim,20260312_133400,34:36.6,2,7,probe,DIGIT4_OFF,149,47:40.6,783.960329,0,,7,,,,keyboard,digit#4 off,"{""value"":7,""note"":""digit#4 off"",""pd_used"":0}",2,0.008333,120,1
Sergio_G01_CNS-LLF5HT7Y0,cpeeg01,offmed_offstim,20260312_133400,34:36.6,2,7,probe,POSTDIG_FIX4_ON,154,47:40.6,783.960329,1.890184,,,,,,keyboard,after digit#4,"{""note"":""after digit#4""}",2,0.008333,120,1
Sergio_G01_CNS-LLF5HT7Y0,cpeeg01,offmed_offstim,20260312_133400,34:36.6,2,7,probe,POSTDIG_FIX4_OFF,159,47:42.5,785.850513,0.064444,,,,,,keyboard,after digit#4,"{""note"":""after digit#4"",""pd_used"":0}",2,0.008333,120,1
Sergio_G01_CNS-LLF5HT7Y0,cpeeg01,offmed_offstim,20260312_133400,34:36.6,2,7,probe,DIGIT_RECALL_LINE_5,165,47:42.5,785.914956,5.028743,,5,,,,keyboard,next recall question,"{""value"":5,""note"":""next recall question"",""pd_used"":1}",2,0.008333,120,1
Sergio_G01_CNS-LLF5HT7Y0,cpeeg01,offmed_offstim,20260312_133400,34:36.6,2,7,probe,PROBE_DIGIT_OK_5,71,47:47.9,790.943699,0.486099,31.909935,slot#5,NaN,,,keyboard,probe_digit#5,"{""value"":""slot#5"",""entered"":null,""rt"":31.909934700001031,""note"":""probe_digit#5""}",2,0.008333,120,1
Sergio_G01_CNS-LLF5HT7Y0,cpeeg01,offmed_offstim,20260312_133400,34:36.6,2,7,probe,DIGIT5_OFF,150,47:48.0,791.429798,0,,7,,,,keyboard,digit#5 off,"{""value"":7,""note"":""digit#5 off"",""pd_used"":0}",2,0.008333,120,1
Sergio_G01_CNS-LLF5HT7Y0,cpeeg01,offmed_offstim,20260312_133400,34:36.6,2,7,probe,POSTDIG_FIX5_ON,155,47:48.1,791.429798,3.428552,,,,,,keyboard,after digit#5,"{""note"":""after digit#5""}",2,0.008333,120,1
Sergio_G01_CNS-LLF5HT7Y0,cpeeg01,offmed_offstim,20260312_133400,34:36.6,2,7,probe,POSTDIG_FIX5_OFF,160,47:51.5,794.85835,0.060275,,,,,,keyboard,after digit#5,"{""note"":""after digit#5"",""pd_used"":0}",2,0.008333,120,1
Sergio_G01_CNS-LLF5HT7Y0,cpeeg01,offmed_offstim,20260312_133400,34:36.6,2,7,probe,PROBE_DONE,73,47:51.5,794.918624,0.001028,,,,,,keyboard,probe complete,"{""value"":"""",""note"":""probe complete""}",2,0.008333,120,1
Sergio_G01_CNS-LLF5HT7Y0,cpeeg01,offmed_offstim,20260312_133400,34:36.6,2,7,probe,TRIAL_END,21,47:51.5,794.919653,0.043425,,,,,,keyboard,,{},2,0.008333,120,1
Sergio_G01_CNS-LLF5HT7Y0,cpeeg01,offmed_offstim,20260312_133400,34:36.6,2,8,probe,TRIAL_CHANGE,22,47:51.5,794.963078,0.00238,,,,,,keyboard,trial transition,"{""note"":""trial transition""}",2,0.008333,120,1
Sergio_G01_CNS-LLF5HT7Y0,cpeeg01,offmed_offstim,20260312_133400,34:36.6,2,8,probe,TRIAL_START,20,47:51.5,794.965458,0.059665,,,,,,keyboard,,{},2,0.008333,120,1
Sergio_G01_CNS-LLF5HT7Y0,cpeeg01,offmed_offstim,20260312_133400,34:36.6,2,8,fix1,FIX1_ON,30,47:51.6,795.025123,3.279754,,,,,,keyboard,,"{""pd_used"":0}",2,0.008333,120,1
Sergio_G01_CNS-LLF5HT7Y0,cpeeg01,offmed_offstim,20260312_133400,34:36.6,2,8,fix1,FIX1_OFF,31,47:54.9,798.304877,0.057314,,,,,,keyboard,,"{""pd_used"":0}",2,0.008333,120,1
Sergio_G01_CNS-LLF5HT7Y0,cpeeg01,offmed_offstim,20260312_133400,34:36.6,2,8,digit,DIGIT1_ON,141,47:55.0,798.362191,0.55589,,8,,,,keyboard,digit#1 shown,"{""value"":8,""note"":""digit#1 shown"",""pd_used"":1}",2,0.008333,120,1
Sergio_G01_CNS-LLF5HT7Y0,cpeeg01,offmed_offstim,20260312_133400,34:36.6,2,8,digit,DIGIT1_OFF,146,47:55.5,798.918081,0,,8,,,,keyboard,digit#1 off,"{""value"":8,""note"":""digit#1 off"",""pd_used"":0}",2,0.008333,120,1
Sergio_G01_CNS-LLF5HT7Y0,cpeeg01,offmed_offstim,20260312_133400,34:36.6,2,8,digit,POSTDIG_FIX1_ON,151,47:55.5,798.918081,1.749421,,,,,,keyboard,after digit#1,"{""note"":""after digit#1""}",2,0.008333,120,1
Sergio_G01_CNS-LLF5HT7Y0,cpeeg01,offmed_offstim,20260312_133400,34:36.6,2,8,digit,POSTDIG_FIX1_OFF,156,47:57.3,800.667501,0.055891,,,,,,keyboard,after digit#1,"{""note"":""after digit#1"",""pd_used"":0}",2,0.008333,120,1
Sergio_G01_CNS-LLF5HT7Y0,cpeeg01,offmed_offstim,20260312_133400,34:36.6,2,8,digit,DIGIT2_ON,142,47:57.3,800.723392,0.555722,,0,,,,keyboard,digit#2 shown,"{""value"":0,""note"":""digit#2 shown"",""pd_used"":1}",2,0.008333,120,1
Sergio_G01_CNS-LLF5HT7Y0,cpeeg01,offmed_offstim,20260312_133400,34:36.6,2,8,digit,DIGIT2_OFF,147,47:57.9,801.279114,0,,0,,,,keyboard,digit#2 off,"{""value"":0,""note"":""digit#2 off"",""pd_used"":0}",2,0.008333,120,1
Sergio_G01_CNS-LLF5HT7Y0,cpeeg01,offmed_offstim,20260312_133400,34:36.6,2,8,digit,POSTDIG_FIX2_ON,152,47:57.9,801.279114,1.684931,,,,,,keyboard,after digit#2,"{""note"":""after digit#2""}",2,0.008333,120,1
Sergio_G01_CNS-LLF5HT7Y0,cpeeg01,offmed_offstim,20260312_133400,34:36.6,2,8,digit,POSTDIG_FIX2_OFF,157,47:59.6,802.964045,0.055305,,,,,,keyboard,after digit#2,"{""note"":""after digit#2"",""pd_used"":0}",2,0.008333,120,1
Sergio_G01_CNS-LLF5HT7Y0,cpeeg01,offmed_offstim,20260312_133400,34:36.6,2,8,digit,DIGIT3_ON,143,47:59.6,803.019351,0.556914,,4,,,,keyboard,digit#3 shown,"{""value"":4,""note"":""digit#3 shown"",""pd_used"":1}",2,0.008333,120,1
Sergio_G01_CNS-LLF5HT7Y0,cpeeg01,offmed_offstim,20260312_133400,34:36.6,2,8,digit,DIGIT3_OFF,148,48:00.2,803.576265,0,,4,,,,keyboard,digit#3 off,"{""value"":4,""note"":""digit#3 off"",""pd_used"":0}",2,0.008333,120,1
Sergio_G01_CNS-LLF5HT7Y0,cpeeg01,offmed_offstim,20260312_133400,34:36.6,2,8,digit,POSTDIG_FIX3_ON,153,48:00.2,803.576265,1.688536,,,,,,keyboard,after digit#3,"{""note"":""after digit#3""}",2,0.008333,120,1
Sergio_G01_CNS-LLF5HT7Y0,cpeeg01,offmed_offstim,20260312_133400,34:36.6,2,8,digit,POSTDIG_FIX3_OFF,158,48:01.9,805.264801,0.056165,,,,,,keyboard,after digit#3,"{""note"":""after digit#3"",""pd_used"":0}",2,0.008333,120,1
Sergio_G01_CNS-LLF5HT7Y0,cpeeg01,offmed_offstim,20260312_133400,34:36.6,2,8,digit,DIGIT4_ON,144,48:01.9,805.320966,0.555435,,9,,,,keyboard,digit#4 shown,"{""value"":9,""note"":""digit#4 shown"",""pd_used"":1}",2,0.008333,120,1
Sergio_G01_CNS-LLF5HT7Y0,cpeeg01,offmed_offstim,20260312_133400,34:36.6,2,8,digit,DIGIT4_OFF,149,48:02.5,805.876401,0,,9,,,,keyboard,digit#4 off,"{""value"":9,""note"":""digit#4 off"",""pd_used"":0}",2,0.008333,120,1
Sergio_G01_CNS-LLF5HT7Y0,cpeeg01,offmed_offstim,20260312_133400,34:36.6,2,8,digit,POSTDIG_FIX4_ON,154,48:02.5,805.876401,1.606645,,,,,,keyboard,after digit#4,"{""note"":""after digit#4""}",2,0.008333,120,1
Sergio_G01_CNS-LLF5HT7Y0,cpeeg01,offmed_offstim,20260312_133400,34:36.6,2,8,digit,POSTDIG_FIX4_OFF,159,48:04.1,807.483046,0.058238,,,,,,keyboard,after digit#4,"{""note"":""after digit#4"",""pd_used"":0}",2,0.008333,120,1
Sergio_G01_CNS-LLF5HT7Y0,cpeeg01,offmed_offstim,20260312_133400,34:36.6,2,8,digit,DIGIT5_ON,145,48:04.2,807.541283,0.556456,,2,,,,keyboard,digit#5 shown,"{""value"":2,""note"":""digit#5 shown"",""pd_used"":1}",2,0.008333,120,1
Sergio_G01_CNS-LLF5HT7Y0,cpeeg01,offmed_offstim,20260312_133400,34:36.6,2,8,digit,DIGIT5_OFF,150,48:04.7,808.097739,0,,2,,,,keyboard,digit#5 off,"{""value"":2,""note"":""digit#5 off"",""pd_used"":0}",2,0.008333,120,1
Sergio_G01_CNS-LLF5HT7Y0,cpeeg01,offmed_offstim,20260312_133400,34:36.6,2,8,digit,POSTDIG_FIX5_ON,155,48:04.7,808.097739,3.085177,,,,,,keyboard,after digit#5,"{""note"":""after digit#5""}",2,0.008333,120,1
Sergio_G01_CNS-LLF5HT7Y0,cpeeg01,offmed_offstim,20260312_133400,34:36.6,2,8,digit,POSTDIG_FIX5_OFF,160,48:07.8,811.182916,0.057205,,,,,,keyboard,after digit#5,"{""note"":""after digit#5"",""pd_used"":0}",2,0.008333,120,1
Sergio_G01_CNS-LLF5HT7Y0,cpeeg01,offmed_offstim,20260312_133400,34:36.6,2,8,distractor,DISTRACTOR_ON,50,48:07.9,811.240121,20.050457,,5+6=11,,,,keyboard,,"{""value"":""5+6=11"",""isCorrectTruth"":true,""trueSum"":11,""pd_used"":1}",2,0.008333,120,1
Sergio_G01_CNS-LLF5HT7Y0,cpeeg01,offmed_offstim,20260312_133400,34:36.6,2,8,distractor,DISTRACTOR_OFF,52,48:27.9,831.290578,0,,,,,,keyboard,,"{""pd_used"":0}",2,0.008333,120,1
Sergio_G01_CNS-LLF5HT7Y0,cpeeg01,offmed_offstim,20260312_133400,34:36.6,2,8,distractor,FIX2_ON,60,48:27.9,831.290578,3.060366,,,,,,keyboard,deadline reached,"{""note"":""deadline reached""}",2,0.008333,120,1
Sergio_G01_CNS-LLF5HT7Y0,cpeeg01,offmed_offstim,20260312_133400,34:36.6,2,8,fix2,FIX2_OFF,61,48:31.0,834.350945,0.053579,,,,,,keyboard,,"{""pd_used"":0}",2,0.008333,120,1
Sergio_G01_CNS-LLF5HT7Y0,cpeeg01,offmed_offstim,20260312_133400,34:36.6,2,8,probe,DIGIT_RECALL_LINE_1,161,48:31.0,834.404523,13.84851,,1,,,,keyboard,first recall question,"{""value"":1,""note"":""first recall question"",""pd_used"":1}",2,0.008333,120,1
Sergio_G01_CNS-LLF5HT7Y0,cpeeg01,offmed_offstim,20260312_133400,34:36.6,2,8,probe,PROBE_DIGIT_OK_1,71,48:45.3,848.253033,0.497421,13.857458,slot#1,NaN,,,keyboard,probe_digit#1,"{""value"":""slot#1"",""entered"":null,""rt"":13.857458399957977,""note"":""probe_digit#1""}",2,0.008333,120,1
Sergio_G01_CNS-LLF5HT7Y0,cpeeg01,offmed_offstim,20260312_133400,34:36.6,2,8,probe,DIGIT1_OFF,146,48:45.4,848.750454,0,,2,,,,keyboard,digit#1 off,"{""value"":2,""note"":""digit#1 off"",""pd_used"":0}",2,0.008333,120,1
Sergio_G01_CNS-LLF5HT7Y0,cpeeg01,offmed_offstim,20260312_133400,34:36.6,2,8,probe,POSTDIG_FIX1_ON,151,48:45.4,848.750454,1.597185,,,,,,keyboard,after digit#1,"{""note"":""after digit#1""}",2,0.008333,120,1
Sergio_G01_CNS-LLF5HT7Y0,cpeeg01,offmed_offstim,20260312_133400,34:36.6,2,8,probe,POSTDIG_FIX1_OFF,156,48:47.0,850.347639,0.064619,,,,,,keyboard,after digit#1,"{""note"":""after digit#1"",""pd_used"":0}",2,0.008333,120,1
Sergio_G01_CNS-LLF5HT7Y0,cpeeg01,offmed_offstim,20260312_133400,34:36.6,2,8,probe,DIGIT_RECALL_LINE_2,162,48:47.0,850.412258,6.051435,,2,,,,keyboard,next recall question,"{""value"":2,""note"":""next recall question"",""pd_used"":1}",2,0.008333,120,1
Sergio_G01_CNS-LLF5HT7Y0,cpeeg01,offmed_offstim,20260312_133400,34:36.6,2,8,probe,PROBE_DIGIT_OK_2,71,48:53.4,856.463693,0.444527,22.068118,slot#2,NaN,,,keyboard,probe_digit#2,"{""value"":""slot#2"",""entered"":null,""rt"":22.068118399940431,""note"":""probe_digit#2""}",2,0.008333,120,1
Sergio_G01_CNS-LLF5HT7Y0,cpeeg01,offmed_offstim,20260312_133400,34:36.6,2,8,probe,DIGIT2_OFF,147,48:53.5,856.90822,0,,2,,,,keyboard,digit#2 off,"{""value"":2,""note"":""digit#2 off"",""pd_used"":0}",2,0.008333,120,1
Sergio_G01_CNS-LLF5HT7Y0,cpeeg01,offmed_offstim,20260312_133400,34:36.6,2,8,probe,POSTDIG_FIX2_ON,152,48:53.5,856.90822,1.976085,,,,,,keyboard,after digit#2,"{""note"":""after digit#2""}",2,0.008333,120,1
Sergio_G01_CNS-LLF5HT7Y0,cpeeg01,offmed_offstim,20260312_133400,34:36.6,2,8,probe,POSTDIG_FIX2_OFF,157,48:55.5,858.884304,0.063341,,,,,,keyboard,after digit#2,"{""note"":""after digit#2"",""pd_used"":0}",2,0.008333,120,1
Sergio_G01_CNS-LLF5HT7Y0,cpeeg01,offmed_offstim,20260312_133400,34:36.6,2,8,probe,DIGIT_RECALL_LINE_3,163,48:55.6,858.947646,5.387064,,3,,,,keyboard,next recall question,"{""value"":3,""note"":""next recall question"",""pd_used"":1}",2,0.008333,120,1
Sergio_G01_CNS-LLF5HT7Y0,cpeeg01,offmed_offstim,20260312_133400,34:36.6,2,8,probe,PROBE_DIGIT_OK_3,71,49:01.4,864.334709,0.557119,29.939135,slot#3,NaN,,,keyboard,probe_digit#3,"{""value"":""slot#3"",""entered"":null,""rt"":29.939134799991734,""note"":""probe_digit#3""}",2,0.008333,120,1
Sergio_G01_CNS-LLF5HT7Y0,cpeeg01,offmed_offstim,20260312_133400,34:36.6,2,8,probe,DIGIT3_OFF,148,49:01.5,864.891829,0,,2,,,,keyboard,digit#3 off,"{""value"":2,""note"":""digit#3 off"",""pd_used"":0}",2,0.008333,120,1
Sergio_G01_CNS-LLF5HT7Y0,cpeeg01,offmed_offstim,20260312_133400,34:36.6,2,8,probe,POSTDIG_FIX3_ON,153,49:01.5,864.891829,1.805193,,,,,,keyboard,after digit#3,"{""note"":""after digit#3""}",2,0.008333,120,1
Sergio_G01_CNS-LLF5HT7Y0,cpeeg01,offmed_offstim,20260312_133400,34:36.6,2,8,probe,POSTDIG_FIX3_OFF,158,49:03.3,866.697022,0.063009,,,,,,keyboard,after digit#3,"{""note"":""after digit#3"",""pd_used"":0}",2,0.008333,120,1
Sergio_G01_CNS-LLF5HT7Y0,cpeeg01,offmed_offstim,20260312_133400,34:36.6,2,8,probe,DIGIT_RECALL_LINE_4,164,49:03.4,866.760031,5.769192,,4,,,,keyboard,next recall question,"{""value"":4,""note"":""next recall question"",""pd_used"":1}",2,0.008333,120,1
Sergio_G01_CNS-LLF5HT7Y0,cpeeg01,offmed_offstim,20260312_133400,34:36.6,2,8,probe,PROBE_DIGIT_OK_4,71,49:09.6,872.529223,0.540699,38.133648,slot#4,NaN,,,keyboard,probe_digit#4,"{""value"":""slot#4"",""entered"":null,""rt"":38.133647999959067,""note"":""probe_digit#4""}",2,0.008333,120,1
Sergio_G01_CNS-LLF5HT7Y0,cpeeg01,offmed_offstim,20260312_133400,34:36.6,2,8,probe,DIGIT4_OFF,149,49:09.7,873.069922,0,,2,,,,keyboard,digit#4 off,"{""value"":2,""note"":""digit#4 off"",""pd_used"":0}",2,0.008333,120,1
Sergio_G01_CNS-LLF5HT7Y0,cpeeg01,offmed_offstim,20260312_133400,34:36.6,2,8,probe,POSTDIG_FIX4_ON,154,49:09.7,873.069922,2.045458,,,,,,keyboard,after digit#4,"{""note"":""after digit#4""}",2,0.008333,120,1
Sergio_G01_CNS-LLF5HT7Y0,cpeeg01,offmed_offstim,20260312_133400,34:36.6,2,8,probe,POSTDIG_FIX4_OFF,159,49:11.7,875.115379,0.065105,,,,,,keyboard,after digit#4,"{""note"":""after digit#4"",""pd_used"":0}",2,0.008333,120,1
