file_version,subject,condition,session,task_start_time,block,trial,phase,event_name,event_code,wall_clock,t_rel_sec,duration_to_next,rt,value_shown,entered_value,correct,key_name,device,note,json,screen_index,ifi,refresh_hz,pd_used
Sergio_G01_CNS-LLF5HT7Y0,s01,offmed_offstim,20260322_163009,2026-03-22 16:30:24.760306,NaN,NaN,,MIC_NOISEFLOOR,6,2026-03-22 16:30:30.071526,5.308571,4.198685,,,,,,keyboard,,{},2,NaN,NaN,1
Sergio_G01_CNS-LLF5HT7Y0,s01,offmed_offstim,20260322_163009,2026-03-22 16:30:24.760306,NaN,NaN,,MIC_REC_SPEECH,7,2026-03-22 16:30:34.267870,9.507257,6.656377,,,,,,keyboard,,{},2,NaN,NaN,1
Sergio_G01_CNS-LLF5HT7Y0,s01,offmed_offstim,20260322_163009,2026-03-22 16:30:24.760306,NaN,NaN,,SESSION_START,1,2026-03-22 16:30:48.497159,23.736501,0.001332,,,,,,keyboard,,{},2,0.016667,60.000000,1
Sergio_G01_CNS-LLF5HT7Y0,s01,offmed_offstim,20260322_163009,2026-03-22 16:30:24.760306,NaN,NaN,,BLOCK_START,10,2026-03-22 16:30:48.498247,23.737833,0.061112,,,,,,keyboard,,{},2,0.016667,60.000000,1
Sergio_G01_CNS-LLF5HT7Y0,s01,offmed_offstim,20260322_163009,2026-03-22 16:30:24.760306,NaN,0,reading,START_PAGE_ON,4,2026-03-22 16:30:48.602642,23.798945,0.045791,,,,,,keyboard,,"{""pd_used"":0}",2,0.016667,60.000000,1
Sergio_G01_CNS-LLF5HT7Y0,s01,offmed_offstim,20260322_163009,2026-03-22 16:30:24.760306,NaN,0,reading,START_PAGE_ON,4,2026-03-22 16:30:48.602642,23.798945,50.194239,,,,,,keyboard,,"{""pd_used"":0}",2,0.016667,60.000000,1
Sergio_G01_CNS-LLF5HT7Y0,s01,offmed_offstim,20260322_163009,2026-03-22 16:30:24.760306,NaN,0,reading,START_PAGE_ON,4,2026-03-22 16:30:48.602642,23.798945,50.567136,,,,,,keyboard,,"{""pd_used"":0}",2,0.016667,60.000000,1
Sergio_G01_CNS-LLF5HT7Y0,s01,offmed_offstim,20260322_163009,2026-03-22 16:30:24.760306,NaN,0,reading,READING_START,23,2026-03-22 16:31:39.126734,74.366081,0.061875,,,,,,keyboard,,{},2,0.016667,60.000000,1
Sergio_G01_CNS-LLF5HT7Y0,s01,offmed_offstim,20260322_163009,2026-03-22 16:30:24.760306,NaN,0,reading,DIGIT_READ1_ON,101,2026-03-22 16:31:39.230877,74.427956,1.022994,,9,,,,keyboard,digit#1 shown,"{""value"":9,""note"":""digit#1 shown"",""pd_used"":1}",2,0.016667,60.000000,1
Sergio_G01_CNS-LLF5HT7Y0,s01,offmed_offstim,20260322_163009,2026-03-22 16:30:24.760306,NaN,0,reading,PROBE_COUNT_OK_1,71,2026-03-22 16:31:40.856597,75.450950,0.697696,51.668587,slot#1,NaN,,,keyboard,probe_digit#1,"{""value"":""slot#1"",""entered"":null,""rt"":51.668587399999979,""note"":""probe_digit#1""}",2,0.016667,60.000000,1
Sergio_G01_CNS-LLF5HT7Y0,s01,offmed_offstim,20260322_163009,2026-03-22 16:30:24.760306,NaN,0,reading,DIGIT_READ1_OFF,116,2026-03-22 16:31:40.954280,76.148645,0.000000,,9,,,,keyboard,digit#1 off,"{""value"":9,""note"":""digit#1 off"",""pd_used"":0}",2,0.016667,60.000000,1
Sergio_G01_CNS-LLF5HT7Y0,s01,offmed_offstim,20260322_163009,2026-03-22 16:30:24.760306,NaN,0,reading,POSTREAD_FIX1_ON,201,2026-03-22 16:31:40.955888,76.148645,1.882449,,,,,,keyboard,after digit#1,"{""note"":""after digit#1""}",2,0.016667,60.000000,1
Sergio_G01_CNS-LLF5HT7Y0,s01,offmed_offstim,20260322_163009,2026-03-22 16:30:24.760306,NaN,0,reading,POSTREAD_FIX1_OFF,216,2026-03-22 16:31:42.835223,78.031095,0.059399,,,,,,keyboard,after digit#1,"{""note"":""after digit#1"",""pd_used"":0}",2,0.016667,60.000000,1
Sergio_G01_CNS-LLF5HT7Y0,s01,offmed_offstim,20260322_163009,2026-03-22 16:30:24.760306,NaN,0,reading,DIGIT_READ2_ON,102,2026-03-22 16:31:42.893773,78.090493,0.712031,,4,,,,keyboard,digit#2 shown,"{""value"":4,""note"":""digit#2 shown"",""pd_used"":1}",2,0.016667,60.000000,1
Sergio_G01_CNS-LLF5HT7Y0,s01,offmed_offstim,20260322_163009,2026-03-22 16:30:24.760306,NaN,0,reading,PROBE_COUNT_OK_2,71,2026-03-22 16:31:44.135646,78.802525,0.623345,55.020162,slot#2,NaN,,,keyboard,probe_digit#2,"{""value"":""slot#2"",""entered"":null,""rt"":55.020162299999811,""note"":""probe_digit#2""}",2,0.016667,60.000000,1
Sergio_G01_CNS-LLF5HT7Y0,s01,offmed_offstim,20260322_163009,2026-03-22 16:30:24.760306,NaN,0,reading,DIGIT_READ2_OFF,117,2026-03-22 16:31:44.232483,79.425870,0.000000,,4,,,,keyboard,digit#2 off,"{""value"":4,""note"":""digit#2 off"",""pd_used"":0}",2,0.016667,60.000000,1
Sergio_G01_CNS-LLF5HT7Y0,s01,offmed_offstim,20260322_163009,2026-03-22 16:30:24.760306,NaN,0,reading,POSTREAD_FIX2_ON,202,2026-03-22 16:31:44.233928,79.425870,1.833104,,,,,,keyboard,after digit#2,"{""note"":""after digit#2""}",2,0.016667,60.000000,1
Sergio_G01_CNS-LLF5HT7Y0,s01,offmed_offstim,20260322_163009,2026-03-22 16:30:24.760306,NaN,0,reading,POSTREAD_FIX2_OFF,217,2026-03-22 16:31:46.063265,81.258974,0.061655,,,,,,keyboard,after digit#2,"{""note"":""after digit#2"",""pd_used"":0}",2,0.016667,60.000000,1
Sergio_G01_CNS-LLF5HT7Y0,s01,offmed_offstim,20260322_163009,2026-03-22 16:30:24.760306,NaN,0,reading,DIGIT_READ3_ON,103,2026-03-22 16:31:46.124116,81.320629,0.629611,,0,,,,keyboard,digit#3 shown,"{""value"":0,""note"":""digit#3 shown"",""pd_used"":1}",2,0.016667,60.000000,1
Sergio_G01_CNS-LLF5HT7Y0,s01,offmed_offstim,20260322_163009,2026-03-22 16:30:24.760306,NaN,0,reading,PROBE_COUNT_OK_3,71,2026-03-22 16:31:47.324837,81.950239,0.665413,58.167877,slot#3,NaN,,,keyboard,probe_digit#3,"{""value"":""slot#3"",""entered"":null,""rt"":58.1678766,""note"":""probe_digit#3""}",2,0.016667,60.000000,1
Sergio_G01_CNS-LLF5HT7Y0,s01,offmed_offstim,20260322_163009,2026-03-22 16:30:24.760306,NaN,0,reading,DIGIT_READ3_OFF,118,2026-03-22 16:31:47.422020,82.615652,0.000000,,0,,,,keyboard,digit#3 off,"{""value"":0,""note"":""digit#3 off"",""pd_used"":0}",2,0.016667,60.000000,1
Sergio_G01_CNS-LLF5HT7Y0,s01,offmed_offstim,20260322_163009,2026-03-22 16:30:24.760306,NaN,0,reading,POSTREAD_FIX3_ON,203,2026-03-22 16:31:47.423603,82.615652,1.905758,,,,,,keyboard,after digit#3,"{""note"":""after digit#3""}",2,0.016667,60.000000,1
Sergio_G01_CNS-LLF5HT7Y0,s01,offmed_offstim,20260322_163009,2026-03-22 16:30:24.760306,NaN,0,reading,POSTREAD_FIX3_OFF,218,2026-03-22 16:31:49.324973,84.521410,0.066077,,,,,,keyboard,after digit#3,"{""note"":""after digit#3"",""pd_used"":0}",2,0.016667,60.000000,1
Sergio_G01_CNS-LLF5HT7Y0,s01,offmed_offstim,20260322_163009,2026-03-22 16:30:24.760306,NaN,0,reading,DIGIT_READ4_ON,104,2026-03-22 16:31:49.390458,84.587486,0.682462,,0,,,,keyboard,digit#4 shown,"{""value"":0,""note"":""digit#4 shown"",""pd_used"":1}",2,0.016667,60.000000,1
Sergio_G01_CNS-LLF5HT7Y0,s01,offmed_offstim,20260322_163009,2026-03-22 16:30:24.760306,NaN,0,reading,PROBE_COUNT_OK_4,71,2026-03-22 16:31:50.550571,85.269948,0.570496,61.487585,slot#4,NaN,,,keyboard,probe_digit#4,"{""value"":""slot#4"",""entered"":null,""rt"":61.487585399999716,""note"":""probe_digit#4""}",2,0.016667,60.000000,1
Sergio_G01_CNS-LLF5HT7Y0,s01,offmed_offstim,20260322_163009,2026-03-22 16:30:24.760306,NaN,0,reading,DIGIT_READ4_OFF,119,2026-03-22 16:31:50.645618,85.840444,0.000000,,0,,,,keyboard,digit#4 off,"{""value"":0,""note"":""digit#4 off"",""pd_used"":0}",2,0.016667,60.000000,1
Sergio_G01_CNS-LLF5HT7Y0,s01,offmed_offstim,20260322_163009,2026-03-22 16:30:24.760306,NaN,0,reading,POSTREAD_FIX4_ON,204,2026-03-22 16:31:50.646605,85.840444,1.597367,,,,,,keyboard,after digit#4,"{""note"":""after digit#4""}",2,0.016667,60.000000,1
Sergio_G01_CNS-LLF5HT7Y0,s01,offmed_offstim,20260322_163009,2026-03-22 16:30:24.760306,NaN,0,reading,POSTREAD_FIX4_OFF,219,2026-03-22 16:31:52.241498,87.437811,0.066691,,,,,,keyboard,after digit#4,"{""note"":""after digit#4"",""pd_used"":0}",2,0.016667,60.000000,1
Sergio_G01_CNS-LLF5HT7Y0,s01,offmed_offstim,20260322_163009,2026-03-22 16:30:24.760306,NaN,0,reading,DIGIT_READ5_ON,105,2026-03-22 16:31:52.308520,87.504502,0.923248,,4,,,,keyboard,digit#5 shown,"{""value"":4,""note"":""digit#5 shown"",""pd_used"":1}",2,0.016667,60.000000,1
Sergio_G01_CNS-LLF5HT7Y0,s01,offmed_offstim,20260322_163009,2026-03-22 16:30:24.760306,NaN,0,reading,PROBE_COUNT_OK_5,71,2026-03-22 16:31:53.818388,88.427750,0.681173,64.645388,slot#5,NaN,,,keyboard,probe_digit#5,"{""value"":""slot#5"",""entered"":null,""rt"":64.64538790000006,""note"":""probe_digit#5""}",2,0.016667,60.000000,1
Sergio_G01_CNS-LLF5HT7Y0,s01,offmed_offstim,20260322_163009,2026-03-22 16:30:24.760306,NaN,0,reading,DIGIT_READ5_OFF,120,2026-03-22 16:31:53.915291,89.108923,0.000000,,4,,,,keyboard,digit#5 off,"{""value"":4,""note"":""digit#5 off"",""pd_used"":0}",2,0.016667,60.000000,1
Sergio_G01_CNS-LLF5HT7Y0,s01,offmed_offstim,20260322_163009,2026-03-22 16:30:24.760306,NaN,0,reading,POSTREAD_FIX5_ON,205,2026-03-22 16:31:53.916979,89.108923,1.840883,,,,,,keyboard,after digit#5,"{""note"":""after digit#5""}",2,0.016667,60.000000,1
Sergio_G01_CNS-LLF5HT7Y0,s01,offmed_offstim,20260322_163009,2026-03-22 16:30:24.760306,NaN,0,reading,POSTREAD_FIX5_OFF,220,2026-03-22 16:31:55.753103,90.949806,0.059956,,,,,,keyboard,after digit#5,"{""note"":""after digit#5"",""pd_used"":0}",2,0.016667,60.000000,1
Sergio_G01_CNS-LLF5HT7Y0,s01,offmed_offstim,20260322_163009,2026-03-22 16:30:24.760306,NaN,0,reading,DIGIT_READ6_ON,106,2026-03-22 16:31:55.813490,91.009762,0.610791,,6,,,,keyboard,digit#6 shown,"{""value"":6,""note"":""digit#6 shown"",""pd_used"":1}",2,0.016667,60.000000,1
Sergio_G01_CNS-LLF5HT7Y0,s01,offmed_offstim,20260322_163009,2026-03-22 16:30:24.760306,NaN,0,reading,PROBE_COUNT_OK_6,71,2026-03-22 16:31:56.824913,91.620553,0.493753,67.838191,slot#6,NaN,,,keyboard,probe_digit#6,"{""value"":""slot#6"",""entered"":null,""rt"":67.838190699999814,""note"":""probe_digit#6""}",2,0.016667,60.000000,1
Sergio_G01_CNS-LLF5HT7Y0,s01,offmed_offstim,20260322_163009,2026-03-22 16:30:24.760306,NaN,0,reading,DIGIT_READ6_OFF,121,2026-03-22 16:31:56.920354,92.114307,0.000000,,6,,,,keyboard,digit#6 off,"{""value"":6,""note"":""digit#6 off"",""pd_used"":0}",2,0.016667,60.000000,1
Sergio_G01_CNS-LLF5HT7Y0,s01,offmed_offstim,20260322_163009,2026-03-22 16:30:24.760306,NaN,0,reading,POSTREAD_FIX6_ON,206,2026-03-22 16:31:56.921787,92.114307,1.702446,,,,,,keyboard,after digit#6,"{""note"":""after digit#6""}",2,0.016667,60.000000,1
Sergio_G01_CNS-LLF5HT7Y0,s01,offmed_offstim,20260322_163009,2026-03-22 16:30:24.760306,NaN,0,reading,POSTREAD_FIX6_OFF,221,2026-03-22 16:31:58.620777,93.816753,0.059768,,,,,,keyboard,after digit#6,"{""note"":""after digit#6"",""pd_used"":0}",2,0.016667,60.000000,1
Sergio_G01_CNS-LLF5HT7Y0,s01,offmed_offstim,20260322_163009,2026-03-22 16:30:24.760306,NaN,0,reading,DIGIT_READ7_ON,107,2026-03-22 16:31:58.678689,93.876521,0.889213,,5,,,,keyboard,digit#7 shown,"{""value"":5,""note"":""digit#7 shown"",""pd_used"":1}",2,0.016667,60.000000,1
Sergio_G01_CNS-LLF5HT7Y0,s01,offmed_offstim,20260322_163009,2026-03-22 16:30:24.760306,NaN,0,reading,PROBE_COUNT_OK_7,71,2026-03-22 16:32:00.117097,94.765734,0.640869,70.983371,slot#7,NaN,,,keyboard,probe_digit#7,"{""value"":""slot#7"",""entered"":null,""rt"":70.983371299999817,""note"":""probe_digit#7""}",2,0.016667,60.000000,1
Sergio_G01_CNS-LLF5HT7Y0,s01,offmed_offstim,20260322_163009,2026-03-22 16:30:24.760306,NaN,0,reading,DIGIT_READ7_OFF,122,2026-03-22 16:32:00.211524,95.406603,0.000000,,5,,,,keyboard,digit#7 off,"{""value"":5,""note"":""digit#7 off"",""pd_used"":0}",2,0.016667,60.000000,1
Sergio_G01_CNS-LLF5HT7Y0,s01,offmed_offstim,20260322_163009,2026-03-22 16:30:24.760306,NaN,0,reading,POSTREAD_FIX7_ON,207,2026-03-22 16:32:00.212199,95.406603,1.879944,,,,,,keyboard,after digit#7,"{""note"":""after digit#7""}",2,0.016667,60.000000,1
Sergio_G01_CNS-LLF5HT7Y0,s01,offmed_offstim,20260322_163009,2026-03-22 16:30:24.760306,NaN,0,reading,POSTREAD_FIX7_OFF,222,2026-03-22 16:32:02.090807,97.286547,0.068847,,,,,,keyboard,after digit#7,"{""note"":""after digit#7"",""pd_used"":0}",2,0.016667,60.000000,1
Sergio_G01_CNS-LLF5HT7Y0,s01,offmed_offstim,20260322_163009,2026-03-22 16:30:24.760306,NaN,0,reading,DIGIT_READ8_ON,108,2026-03-22 16:32:02.158866,97.355394,0.654403,,1,,,,keyboard,digit#8 shown,"{""value"":1,""note"":""digit#8 shown"",""pd_used"":1}",2,0.016667,60.000000,1
Sergio_G01_CNS-LLF5HT7Y0,s01,offmed_offstim,20260322_163009,2026-03-22 16:30:24.760306,NaN,0,reading,PROBE_COUNT_OK_8,71,2026-03-22 16:32:03.514928,98.009796,0.796389,74.227434,slot#8,NaN,,,keyboard,probe_digit#8,"{""value"":""slot#8"",""entered"":null,""rt"":74.227433900000051,""note"":""probe_digit#8""}",2,0.016667,60.000000,1
Sergio_G01_CNS-LLF5HT7Y0,s01,offmed_offstim,20260322_163009,2026-03-22 16:30:24.760306,NaN,0,reading,DIGIT_READ8_OFF,123,2026-03-22 16:32:03.611781,98.806185,0.000000,,1,,,,keyboard,digit#8 off,"{""value"":1,""note"":""digit#8 off"",""pd_used"":0}",2,0.016667,60.000000,1
Sergio_G01_CNS-LLF5HT7Y0,s01,offmed_offstim,20260322_163009,2026-03-22 16:30:24.760306,NaN,0,reading,POSTREAD_FIX8_ON,208,2026-03-22 16:32:03.613350,98.806185,1.943576,,,,,,keyboard,after digit#8,"{""note"":""after digit#8""}",2,0.016667,60.000000,1
Sergio_G01_CNS-LLF5HT7Y0,s01,offmed_offstim,20260322_163009,2026-03-22 16:30:24.760306,NaN,0,reading,POSTREAD_FIX8_OFF,223,2026-03-22 16:32:05.553804,100.749761,0.059644,,,,,,keyboard,after digit#8,"{""note"":""after digit#8"",""pd_used"":0}",2,0.016667,60.000000,1
Sergio_G01_CNS-LLF5HT7Y0,s01,offmed_offstim,20260322_163009,2026-03-22 16:30:24.760306,NaN,0,reading,DIGIT_READ9_ON,109,2026-03-22 16:32:05.612980,100.809405,0.784552,,8,,,,keyboard,digit#9 shown,"{""value"":8,""note"":""digit#9 shown"",""pd_used"":1}",2,0.016667,60.000000,1
Sergio_G01_CNS-LLF5HT7Y0,s01,offmed_offstim,20260322_163009,2026-03-22 16:30:24.760306,NaN,0,reading,PROBE_COUNT_OK_9,71,2026-03-22 16:32:06.942438,101.593956,0.639218,77.811594,slot#9,NaN,,,keyboard,probe_digit#9,"{""value"":""slot#9"",""entered"":null,""rt"":77.811593999999786,""note"":""probe_digit#9""}",2,0.016667,60.000000,1
Sergio_G01_CNS-LLF5HT7Y0,s01,offmed_offstim,20260322_163009,2026-03-22 16:30:24.760306,NaN,0,reading,DIGIT_READ9_OFF,124,2026-03-22 16:32:07.039739,102.233175,0.000000,,8,,,,keyboard,digit#9 off,"{""value"":8,""note"":""digit#9 off"",""pd_used"":0}",2,0.016667,60.000000,1
Sergio_G01_CNS-LLF5HT7Y0,s01,offmed_offstim,20260322_163009,2026-03-22 16:30:24.760306,NaN,0,reading,POSTREAD_FIX9_ON,209,2026-03-22 16:32:07.041406,102.233175,1.559178,,,,,,keyboard,after digit#9,"{""note"":""after digit#9""}",2,0.016667,60.000000,1
Sergio_G01_CNS-LLF5HT7Y0,s01,offmed_offstim,20260322_163009,2026-03-22 16:30:24.760306,NaN,0,reading,POSTREAD_FIX9_OFF,224,2026-03-22 16:32:08.595623,103.792353,0.061429,,,,,,keyboard,after digit#9,"{""note"":""after digit#9"",""pd_used"":0}",2,0.016667,60.000000,1
Sergio_G01_CNS-LLF5HT7Y0,s01,offmed_offstim,20260322_163009,2026-03-22 16:30:24.760306,NaN,0,reading,DIGIT_READ10_ON,110,2026-03-22 16:32:08.656410,103.853782,0.769993,,2,,,,keyboard,digit#10 shown,"{""value"":2,""note"":""digit#10 shown"",""pd_used"":1}",2,0.016667,60.000000,1
Sergio_G01_CNS-LLF5HT7Y0,s01,offmed_offstim,20260322_163009,2026-03-22 16:30:24.760306,NaN,0,reading,PROBE_COUNT_OK_10,71,2026-03-22 16:32:09.907626,104.623775,0.574600,80.841412,slot#10,NaN,,,keyboard,probe_digit#10,"{""value"":""slot#10"",""entered"":null,""rt"":80.841412499999933,""note"":""probe_digit#10""}",2,0.016667,60.000000,1
Sergio_G01_CNS-LLF5HT7Y0,s01,offmed_offstim,20260322_163009,2026-03-22 16:30:24.760306,NaN,0,reading,DIGIT_READ10_OFF,125,2026-03-22 16:32:10.003359,105.198375,0.000000,,2,,,,keyboard,digit#10 off,"{""value"":2,""note"":""digit#10 off"",""pd_used"":0}",2,0.016667,60.000000,1
Sergio_G01_CNS-LLF5HT7Y0,s01,offmed_offstim,20260322_163009,2026-03-22 16:30:24.760306,NaN,0,reading,POSTREAD_FIX10_ON,210,2026-03-22 16:32:10.005057,105.198375,1.657949,,,,,,keyboard,after digit#10,"{""note"":""after digit#10""}",2,0.016667,60.000000,1
Sergio_G01_CNS-LLF5HT7Y0,s01,offmed_offstim,20260322_163009,2026-03-22 16:30:24.760306,NaN,0,reading,POSTREAD_FIX10_OFF,225,2026-03-22 16:32:11.660135,106.856324,0.064412,,,,,,keyboard,after digit#10,"{""note"":""after digit#10"",""pd_used"":0}",2,0.016667,60.000000,1
Sergio_G01_CNS-LLF5HT7Y0,s01,offmed_offstim,20260322_163009,2026-03-22 16:30:24.760306,NaN,0,reading,DIGIT_READ11_ON,111,2026-03-22 16:32:11.723549,106.920736,0.814598,,9,,,,keyboard,digit#11 shown,"{""value"":9,""note"":""digit#11 shown"",""pd_used"":1}",2,0.016667,60.000000,1
Sergio_G01_CNS-LLF5HT7Y0,s01,offmed_offstim,20260322_163009,2026-03-22 16:30:24.760306,NaN,0,reading,PROBE_COUNT_OK_11,71,2026-03-22 16:32:13.030413,107.735334,0.586065,83.952971,slot#11,NaN,,,keyboard,probe_digit#11,"{""value"":""slot#11"",""entered"":null,""rt"":83.952971299999717,""note"":""probe_digit#11""}",2,0.016667,60.000000,1
Sergio_G01_CNS-LLF5HT7Y0,s01,offmed_offstim,20260322_163009,2026-03-22 16:30:24.760306,NaN,0,reading,DIGIT_READ11_OFF,126,2026-03-22 16:32:13.125909,108.321398,0.000000,,9,,,,keyboard,digit#11 off,"{""value"":9,""note"":""digit#11 off"",""pd_used"":0}",2,0.016667,60.000000,1
Sergio_G01_CNS-LLF5HT7Y0,s01,offmed_offstim,20260322_163009,2026-03-22 16:30:24.760306,NaN,0,reading,POSTREAD_FIX11_ON,211,2026-03-22 16:32:13.127447,108.321398,1.927666,,,,,,keyboard,after digit#11,"{""note"":""after digit#11""}",2,0.016667,60.000000,1
Sergio_G01_CNS-LLF5HT7Y0,s01,offmed_offstim,20260322_163009,2026-03-22 16:30:24.760306,NaN,0,reading,POSTREAD_FIX11_OFF,226,2026-03-22 16:32:15.051167,110.249065,0.057571,,,,,,keyboard,after digit#11,"{""note"":""after digit#11"",""pd_used"":0}",2,0.016667,60.000000,1
Sergio_G01_CNS-LLF5HT7Y0,s01,offmed_offstim,20260322_163009,2026-03-22 16:30:24.760306,NaN,0,reading,DIGIT_READ12_ON,112,2026-03-22 16:32:15.109581,110.306636,0.920213,,1,,,,keyboard,digit#12 shown,"{""value"":1,""note"":""digit#12 shown"",""pd_used"":1}",2,0.016667,60.000000,1
Sergio_G01_CNS-LLF5HT7Y0,s01,offmed_offstim,20260322_163009,2026-03-22 16:30:24.760306,NaN,0,reading,PROBE_COUNT_OK_12,71,2026-03-22 16:32:16.456446,111.226849,0.518911,87.444487,slot#12,NaN,,,keyboard,probe_digit#12,"{""value"":""slot#12"",""entered"":null,""rt"":87.444486599999891,""note"":""probe_digit#12""}",2,0.016667,60.000000,1
Sergio_G01_CNS-LLF5HT7Y0,s01,offmed_offstim,20260322_163009,2026-03-22 16:30:24.760306,NaN,0,reading,DIGIT_READ12_OFF,127,2026-03-22 16:32:16.551425,111.745760,0.000000,,1,,,,keyboard,digit#12 off,"{""value"":1,""note"":""digit#12 off"",""pd_used"":0}",2,0.016667,60.000000,1
Sergio_G01_CNS-LLF5HT7Y0,s01,offmed_offstim,20260322_163009,2026-03-22 16:30:24.760306,NaN,0,reading,POSTREAD_FIX12_ON,212,2026-03-22 16:32:16.552428,111.745760,1.849478,,,,,,keyboard,after digit#12,"{""note"":""after digit#12""}",2,0.016667,60.000000,1
Sergio_G01_CNS-LLF5HT7Y0,s01,offmed_offstim,20260322_163009,2026-03-22 16:30:24.760306,NaN,0,reading,POSTREAD_FIX12_OFF,227,2026-03-22 16:32:18.397902,113.595239,0.058866,,,,,,keyboard,after digit#12,"{""note"":""after digit#12"",""pd_used"":0}",2,0.016667,60.000000,1
Sergio_G01_CNS-LLF5HT7Y0,s01,offmed_offstim,20260322_163009,2026-03-22 16:30:24.760306,NaN,0,reading,DIGIT_READ13_ON,113,2026-03-22 16:32:18.457380,113.654105,0.707409,,7,,,,keyboard,digit#13 shown,"{""value"":7,""note"":""digit#13 shown"",""pd_used"":1}",2,0.016667,60.000000,1
Sergio_G01_CNS-LLF5HT7Y0,s01,offmed_offstim,20260322_163009,2026-03-22 16:30:24.760306,NaN,0,reading,PROBE_COUNT_OK_13,71,2026-03-22 16:32:19.558398,114.361513,0.487691,90.579151,slot#13,NaN,,,keyboard,probe_digit#13,"{""value"":""slot#13"",""entered"":null,""rt"":90.579150799999752,""note"":""probe_digit#13""}",2,0.016667,60.000000,1
Sergio_G01_CNS-LLF5HT7Y0,s01,offmed_offstim,20260322_163009,2026-03-22 16:30:24.760306,NaN,0,reading,DIGIT_READ13_OFF,128,2026-03-22 16:32:19.654266,114.849204,0.000000,,7,,,,keyboard,digit#13 off,"{""value"":7,""note"":""digit#13 off"",""pd_used"":0}",2,0.016667,60.000000,1
Sergio_G01_CNS-LLF5HT7Y0,s01,offmed_offstim,20260322_163009,2026-03-22 16:30:24.760306,NaN,0,reading,POSTREAD_FIX13_ON,213,2026-03-22 16:32:19.655740,114.849204,1.574361,,,,,,keyboard,after digit#13,"{""note"":""after digit#13""}",2,0.016667,60.000000,1
Sergio_G01_CNS-LLF5HT7Y0,s01,offmed_offstim,20260322_163009,2026-03-22 16:30:24.760306,NaN,0,reading,POSTREAD_FIX13_OFF,228,2026-03-22 16:32:21.226706,116.423565,0.063335,,,,,,keyboard,after digit#13,"{""note"":""after digit#13"",""pd_used"":0}",2,0.016667,60.000000,1
Sergio_G01_CNS-LLF5HT7Y0,s01,offmed_offstim,20260322_163009,2026-03-22 16:30:24.760306,NaN,0,reading,DIGIT_READ14_ON,114,2026-03-22 16:32:21.289965,116.486900,0.921208,,3,,,,keyboard,digit#14 shown,"{""value"":3,""note"":""digit#14 shown"",""pd_used"":1}",2,0.016667,60.000000,1
Sergio_G01_CNS-LLF5HT7Y0,s01,offmed_offstim,20260322_163009,2026-03-22 16:30:24.760306,NaN,0,reading,PROBE_COUNT_OK_14,71,2026-03-22 16:32:22.757909,117.408108,0.640338,93.625746,slot#14,NaN,,,keyboard,probe_digit#14,"{""value"":""slot#14"",""entered"":null,""rt"":93.625745899999856,""note"":""probe_digit#14""}",2,0.016667,60.000000,1
Sergio_G01_CNS-LLF5HT7Y0,s01,offmed_offstim,20260322_163009,2026-03-22 16:30:24.760306,NaN,0,reading,DIGIT_READ14_OFF,129,2026-03-22 16:32:22.852968,118.048446,0.000000,,3,,,,keyboard,digit#14 off,"{""value"":3,""note"":""digit#14 off"",""pd_used"":0}",2,0.016667,60.000000,1
Sergio_G01_CNS-LLF5HT7Y0,s01,offmed_offstim,20260322_163009,2026-03-22 16:30:24.760306,NaN,0,reading,POSTREAD_FIX14_ON,214,2026-03-22 16:32:22.853673,118.048446,1.725095,,,,,,keyboard,after digit#14,"{""note"":""after digit#14""}",2,0.016667,60.000000,1
Sergio_G01_CNS-LLF5HT7Y0,s01,offmed_offstim,20260322_163009,2026-03-22 16:30:24.760306,NaN,0,reading,POSTREAD_FIX14_OFF,229,2026-03-22 16:32:24.575962,119.773541,0.063428,,,,,,keyboard,after digit#14,"{""note"":""after digit#14"",""pd_used"":0}",2,0.016667,60.000000,1
Sergio_G01_CNS-LLF5HT7Y0,s01,offmed_offstim,20260322_163009,2026-03-22 16:30:24.760306,NaN,0,reading,DIGIT_READ15_ON,115,2026-03-22 16:32:24.639847,119.836969,0.727134,,4,,,,keyboard,digit#15 shown,"{""value"":4,""note"":""digit#15 shown"",""pd_used"":1}",2,0.016667,60.000000,1
Sergio_G01_CNS-LLF5HT7Y0,s01,offmed_offstim,20260322_163009,2026-03-22 16:30:24.760306,NaN,0,reading,PROBE_COUNT_OK_15,71,2026-03-22 16:32:25.944726,120.564103,0.669914,96.781740,slot#15,NaN,,,keyboard,probe_digit#15,"{""value"":""slot#15"",""entered"":null,""rt"":96.781740200000058,""note"":""probe_digit#15""}",2,0.016667,60.000000,1
Sergio_G01_CNS-LLF5HT7Y0,s01,offmed_offstim,20260322_163009,2026-03-22 16:30:24.760306,NaN,0,reading,DIGIT_READ15_OFF,130,2026-03-22 16:32:26.040395,121.234017,0.000000,,4,,,,keyboard,digit#15 off,"{""value"":4,""note"":""digit#15 off"",""pd_used"":0}",2,0.016667,60.000000,1
Sergio_G01_CNS-LLF5HT7Y0,s01,offmed_offstim,20260322_163009,2026-03-22 16:30:24.760306,NaN,0,reading,POSTREAD_FIX15_ON,215,2026-03-22 16:32:26.041983,121.234017,3.246295,,,,,,keyboard,after digit#15,"{""note"":""after digit#15""}",2,0.016667,60.000000,1
Sergio_G01_CNS-LLF5HT7Y0,s01,offmed_offstim,20260322_163009,2026-03-22 16:30:24.760306,NaN,0,reading,POSTREAD_FIX15_OFF,230,2026-03-22 16:32:29.283375,124.480312,0.048715,,,,,,keyboard,after digit#15,"{""note"":""after digit#15"",""pd_used"":0}",2,0.016667,60.000000,1
Sergio_G01_CNS-LLF5HT7Y0,s01,offmed_offstim,20260322_163009,2026-03-22 16:30:24.760306,NaN,0,reading,READING_END,24,2026-03-22 16:32:29.289531,124.529028,0.054504,,,,,,keyboard,,{},2,0.016667,60.000000,1
Sergio_G01_CNS-LLF5HT7Y0,s01,offmed_offstim,20260322_163009,2026-03-22 16:30:24.760306,NaN,0,reading,START_PAGE_ON,4,2026-03-22 16:32:29.386596,124.583532,0.051776,,,,,,keyboard,,"{""pd_used"":0}",2,0.016667,60.000000,1
Sergio_G01_CNS-LLF5HT7Y0,s01,offmed_offstim,20260322_163009,2026-03-22 16:30:24.760306,NaN,0,reading,START_PAGE_ON,4,2026-03-22 16:32:29.386596,124.583532,1.969206,,,,,,keyboard,,"{""pd_used"":0}",2,0.016667,60.000000,1
Sergio_G01_CNS-LLF5HT7Y0,s01,offmed_offstim,20260322_163009,2026-03-22 16:30:24.760306,NaN,0,reading,START_PAGE_ON,4,2026-03-22 16:32:29.386596,124.583532,2.343904,,,,,,keyboard,,"{""pd_used"":0}",2,0.016667,60.000000,1
Sergio_G01_CNS-LLF5HT7Y0,s01,offmed_offstim,20260322_163009,2026-03-22 16:30:24.760306,NaN,1,reading,TRIAL_CHANGE,22,2026-03-22 16:32:31.688017,126.927436,0.001078,,,,,,keyboard,trial transition,"{""note"":""trial transition""}",2,0.016667,60.000000,1
Sergio_G01_CNS-LLF5HT7Y0,s01,offmed_offstim,20260322_163009,2026-03-22 16:30:24.760306,NaN,1,reading,TRIAL_START,20,2026-03-22 16:32:31.688858,126.928514,0.058558,,,,,,keyboard,,{},2,0.016667,60.000000,1
Sergio_G01_CNS-LLF5HT7Y0,s01,offmed_offstim,20260322_163009,2026-03-22 16:30:24.760306,NaN,1,fix1,FIX1_ON,30,2026-03-22 16:32:31.792435,126.987071,3.252059,,,,,,keyboard,,"{""pd_used"":0}",2,0.016667,60.000000,1
Sergio_G01_CNS-LLF5HT7Y0,s01,offmed_offstim,20260322_163009,2026-03-22 16:30:24.760306,NaN,1,fix1,FIX1_OFF,31,2026-03-22 16:32:35.042809,130.239130,0.053141,,,,,,keyboard,,"{""pd_used"":0}",2,0.016667,60.000000,1
Sergio_G01_CNS-LLF5HT7Y0,s01,offmed_offstim,20260322_163009,2026-03-22 16:30:24.760306,NaN,1,digit,DIGIT1_ON,141,2026-03-22 16:32:35.095519,130.292271,0.551798,,1,,,,keyboard,digit#1 shown,"{""value"":1,""note"":""digit#1 shown"",""pd_used"":1}",2,0.016667,60.000000,1
Sergio_G01_CNS-LLF5HT7Y0,s01,offmed_offstim,20260322_163009,2026-03-22 16:30:24.760306,NaN,1,digit,DIGIT1_OFF,146,2026-03-22 16:32:35.647898,130.844068,0.000000,,1,,,,keyboard,digit#1 off,"{""value"":1,""note"":""digit#1 off"",""pd_used"":0}",2,0.016667,60.000000,1
Sergio_G01_CNS-LLF5HT7Y0,s01,offmed_offstim,20260322_163009,2026-03-22 16:30:24.760306,NaN,1,digit,POSTDIG_FIX1_ON,151,2026-03-22 16:32:35.649365,130.844068,1.792377,,,,,,keyboard,after digit#1,"{""note"":""after digit#1""}",2,0.016667,60.000000,1
Sergio_G01_CNS-LLF5HT7Y0,s01,offmed_offstim,20260322_163009,2026-03-22 16:30:24.760306,NaN,1,digit,POSTDIG_FIX1_OFF,156,2026-03-22 16:32:37.439909,132.636445,0.052070,,,,,,keyboard,after digit#1,"{""note"":""after digit#1"",""pd_used"":0}",2,0.016667,60.000000,1
Sergio_G01_CNS-LLF5HT7Y0,s01,offmed_offstim,20260322_163009,2026-03-22 16:30:24.760306,NaN,1,digit,DIGIT2_ON,142,2026-03-22 16:32:37.491762,132.688515,0.552129,,4,,,,keyboard,digit#2 shown,"{""value"":4,""note"":""digit#2 shown"",""pd_used"":1}",2,0.016667,60.000000,1
Sergio_G01_CNS-LLF5HT7Y0,s01,offmed_offstim,20260322_163009,2026-03-22 16:30:24.760306,NaN,1,digit,DIGIT2_OFF,147,2026-03-22 16:32:38.043259,133.240644,0.000000,,4,,,,keyboard,digit#2 off,"{""value"":4,""note"":""digit#2 off"",""pd_used"":0}",2,0.016667,60.000000,1
Sergio_G01_CNS-LLF5HT7Y0,s01,offmed_offstim,20260322_163009,2026-03-22 16:30:24.760306,NaN,1,digit,POSTDIG_FIX2_ON,152,2026-03-22 16:32:38.044093,133.240644,1.551858,,,,,,keyboard,after digit#2,"{""note"":""after digit#2""}",2,0.016667,60.000000,1
Sergio_G01_CNS-LLF5HT7Y0,s01,offmed_offstim,20260322_163009,2026-03-22 16:30:24.760306,NaN,1,digit,POSTDIG_FIX2_OFF,157,2026-03-22 16:32:39.594770,134.792502,0.050236,,,,,,keyboard,after digit#2,"{""note"":""after digit#2"",""pd_used"":0}",2,0.016667,60.000000,1
Sergio_G01_CNS-LLF5HT7Y0,s01,offmed_offstim,20260322_163009,2026-03-22 16:30:24.760306,NaN,1,digit,DIGIT3_ON,143,2026-03-22 16:32:39.646344,134.842738,0.552238,,2,,,,keyboard,digit#3 shown,"{""value"":2,""note"":""digit#3 shown"",""pd_used"":1}",2,0.016667,60.000000,1
Sergio_G01_CNS-LLF5HT7Y0,s01,offmed_offstim,20260322_163009,2026-03-22 16:30:24.760306,NaN,1,digit,DIGIT3_OFF,148,2026-03-22 16:32:40.198681,135.394976,0.000000,,2,,,,keyboard,digit#3 off,"{""value"":2,""note"":""digit#3 off"",""pd_used"":0}",2,0.016667,60.000000,1
Sergio_G01_CNS-LLF5HT7Y0,s01,offmed_offstim,20260322_163009,2026-03-22 16:30:24.760306,NaN,1,digit,POSTDIG_FIX3_ON,153,2026-03-22 16:32:40.199700,135.394976,1.952626,,,,,,keyboard,after digit#3,"{""note"":""after digit#3""}",2,0.016667,60.000000,1
Sergio_G01_CNS-LLF5HT7Y0,s01,offmed_offstim,20260322_163009,2026-03-22 16:30:24.760306,NaN,1,digit,POSTDIG_FIX3_OFF,158,2026-03-22 16:32:42.151086,137.347602,0.052522,,,,,,keyboard,after digit#3,"{""note"":""after digit#3"",""pd_used"":0}",2,0.016667,60.000000,1
Sergio_G01_CNS-LLF5HT7Y0,s01,offmed_offstim,20260322_163009,2026-03-22 16:30:24.760306,NaN,1,digit,DIGIT4_ON,144,2026-03-22 16:32:42.202641,137.400124,0.551348,,7,,,,keyboard,digit#4 shown,"{""value"":7,""note"":""digit#4 shown"",""pd_used"":1}",2,0.016667,60.000000,1
Sergio_G01_CNS-LLF5HT7Y0,s01,offmed_offstim,20260322_163009,2026-03-22 16:30:24.760306,NaN,1,digit,DIGIT4_OFF,149,2026-03-22 16:32:42.754322,137.951471,0.000000,,7,,,,keyboard,digit#4 off,"{""value"":7,""note"":""digit#4 off"",""pd_used"":0}",2,0.016667,60.000000,1
Sergio_G01_CNS-LLF5HT7Y0,s01,offmed_offstim,20260322_163009,2026-03-22 16:30:24.760306,NaN,1,digit,POSTDIG_FIX4_ON,154,2026-03-22 16:32:42.755178,137.951471,1.613918,,,,,,keyboard,after digit#4,"{""note"":""after digit#4""}",2,0.016667,60.000000,1
Sergio_G01_CNS-LLF5HT7Y0,s01,offmed_offstim,20260322_163009,2026-03-22 16:30:24.760306,NaN,1,digit,POSTDIG_FIX4_OFF,159,2026-03-22 16:32:44.367814,139.565389,0.051490,,,,,,keyboard,after digit#4,"{""note"":""after digit#4"",""pd_used"":0}",2,0.016667,60.000000,1
Sergio_G01_CNS-LLF5HT7Y0,s01,offmed_offstim,20260322_163009,2026-03-22 16:30:24.760306,NaN,1,digit,DIGIT5_ON,145,2026-03-22 16:32:44.418932,139.616879,0.550223,,2,,,,keyboard,digit#5 shown,"{""value"":2,""note"":""digit#5 shown"",""pd_used"":1}",2,0.016667,60.000000,1
Sergio_G01_CNS-LLF5HT7Y0,s01,offmed_offstim,20260322_163009,2026-03-22 16:30:24.760306,NaN,1,digit,DIGIT5_OFF,150,2026-03-22 16:32:44.970535,140.167102,0.000000,,2,,,,keyboard,digit#5 off,"{""value"":2,""note"":""digit#5 off"",""pd_used"":0}",2,0.016667,60.000000,1
Sergio_G01_CNS-LLF5HT7Y0,s01,offmed_offstim,20260322_163009,2026-03-22 16:30:24.760306,NaN,1,digit,POSTDIG_FIX5_ON,155,2026-03-22 16:32:44.971336,140.167102,3.377176,,,,,,keyboard,after digit#5,"{""note"":""after digit#5""}",2,0.016667,60.000000,1
Sergio_G01_CNS-LLF5HT7Y0,s01,offmed_offstim,20260322_163009,2026-03-22 16:30:24.760306,NaN,1,digit,POSTDIG_FIX5_OFF,160,2026-03-22 16:32:48.347725,143.544278,0.052673,,,,,,keyboard,after digit#5,"{""note"":""after digit#5"",""pd_used"":0}",2,0.016667,60.000000,1
Sergio_G01_CNS-LLF5HT7Y0,s01,offmed_offstim,20260322_163009,2026-03-22 16:30:24.760306,NaN,1,distractor,DISTRACTOR_ON,50,2026-03-22 16:32:48.400164,143.596950,2.191696,,6+8=14,,,,keyboard,,"{""value"":""6+8=14"",""isCorrectTruth"":true,""trueSum"":14,""pd_used"":1}",2,0.016667,60.000000,1
Sergio_G01_CNS-LLF5HT7Y0,s01,offmed_offstim,20260322_163009,2026-03-22 16:30:24.760306,NaN,1,distractor,DISTRACTOR_ANS,51,2026-03-22 16:32:51.054641,145.788647,0.000000,2.191696,6+8=14,F,0,,keyboard,key= (False),"{""value"":""6+8=14"",""entered"":""F"",""rt"":2.1916962999998759,""correct"":0,""note"":""key= (False)"",""truth"":true,""trueSum"":14,""shownSum"":14,""a"":6,""b"":8}",2,0.016667,60.000000,1
Sergio_G01_CNS-LLF5HT7Y0,s01,offmed_offstim,20260322_163009,2026-03-22 16:30:24.760306,NaN,1,distractor,ANS_WRONG,200,2026-03-22 16:32:51.098612,145.788647,0.557863,,,,,,keyboard,,{},2,0.016667,60.000000,1
Sergio_G01_CNS-LLF5HT7Y0,s01,offmed_offstim,20260322_163009,2026-03-22 16:30:24.760306,NaN,1,distractor,DISTRACTOR_OFF,52,2026-03-22 16:32:51.151060,146.346510,0.000000,,,,,,keyboard,,"{""pd_used"":0}",2,0.016667,60.000000,1
Sergio_G01_CNS-LLF5HT7Y0,s01,offmed_offstim,20260322_163009,2026-03-22 16:30:24.760306,NaN,1,distractor,FIX2_ON,60,2026-03-22 16:32:51.152568,146.346510,3.443723,,,,,,keyboard,immediate after response,"{""note"":""immediate after response""}",2,0.016667,60.000000,1
Sergio_G01_CNS-LLF5HT7Y0,s01,offmed_offstim,20260322_163009,2026-03-22 16:30:24.760306,NaN,1,fix2,FIX2_OFF,61,2026-03-22 16:32:54.593876,149.790233,0.053504,,,,,,keyboard,,"{""pd_used"":0}",2,0.016667,60.000000,1
Sergio_G01_CNS-LLF5HT7Y0,s01,offmed_offstim,20260322_163009,2026-03-22 16:30:24.760306,NaN,1,probe,DIGIT_RECALL_LINE_1,161,2026-03-22 16:32:54.647262,149.843736,0.747166,,1,,,,keyboard,first recall question,"{""value"":1,""note"":""first recall question"",""pd_used"":1}",2,0.016667,60.000000,1
Sergio_G01_CNS-LLF5HT7Y0,s01,offmed_offstim,20260322_163009,2026-03-22 16:30:24.760306,NaN,1,probe,PROBE_DIGIT_OK_1,71,2026-03-22 16:32:55.822851,150.590902,0.521690,0.756253,slot#1,NaN,,,keyboard,probe_digit#1,"{""value"":""slot#1"",""entered"":null,""rt"":0.75625300000001516,""note"":""probe_digit#1""}",2,0.016667,60.000000,1
Sergio_G01_CNS-LLF5HT7Y0,s01,offmed_offstim,20260322_163009,2026-03-22 16:30:24.760306,NaN,1,probe,DIGIT1_OFF,146,2026-03-22 16:32:55.917788,151.112593,0.000000,,2,,,,keyboard,digit#1 off,"{""value"":2,""note"":""digit#1 off"",""pd_used"":0}",2,0.016667,60.000000,1
Sergio_G01_CNS-LLF5HT7Y0,s01,offmed_offstim,20260322_163009,2026-03-22 16:30:24.760306,NaN,1,probe,POSTDIG_FIX1_ON,151,2026-03-22 16:32:55.919168,151.112593,1.590826,,,,,,keyboard,after digit#1,"{""note"":""after digit#1""}",2,0.016667,60.000000,1
Sergio_G01_CNS-LLF5HT7Y0,s01,offmed_offstim,20260322_163009,2026-03-22 16:30:24.760306,NaN,1,probe,POSTDIG_FIX1_OFF,156,2026-03-22 16:32:57.506601,152.703419,0.067183,,,,,,keyboard,after digit#1,"{""note"":""after digit#1"",""pd_used"":0}",2,0.016667,60.000000,1
Sergio_G01_CNS-LLF5HT7Y0,s01,offmed_offstim,20260322_163009,2026-03-22 16:30:24.760306,NaN,1,probe,DIGIT_RECALL_LINE_2,162,2026-03-22 16:32:57.572938,152.770602,0.434560,,2,,,,keyboard,next recall question,"{""value"":2,""note"":""next recall question"",""pd_used"":1}",2,0.016667,60.000000,1
Sergio_G01_CNS-LLF5HT7Y0,s01,offmed_offstim,20260322_163009,2026-03-22 16:30:24.760306,NaN,1,probe,PROBE_DIGIT_OK_2,71,2026-03-22 16:32:58.493829,153.205162,0.578060,3.370513,slot#2,NaN,,,keyboard,probe_digit#2,"{""value"":""slot#2"",""entered"":null,""rt"":3.3705126000004384,""note"":""probe_digit#2""}",2,0.016667,60.000000,1
Sergio_G01_CNS-LLF5HT7Y0,s01,offmed_offstim,20260322_163009,2026-03-22 16:30:24.760306,NaN,1,probe,DIGIT2_OFF,147,2026-03-22 16:32:58.588954,153.783222,0.000000,,2,,,,keyboard,digit#2 off,"{""value"":2,""note"":""digit#2 off"",""pd_used"":0}",2,0.016667,60.000000,1
Sergio_G01_CNS-LLF5HT7Y0,s01,offmed_offstim,20260322_163009,2026-03-22 16:30:24.760306,NaN,1,probe,POSTDIG_FIX2_ON,152,2026-03-22 16:32:58.589717,153.783222,1.961135,,,,,,keyboard,after digit#2,"{""note"":""after digit#2""}",2,0.016667,60.000000,1
Sergio_G01_CNS-LLF5HT7Y0,s01,offmed_offstim,20260322_163009,2026-03-22 16:30:24.760306,NaN,1,probe,POSTDIG_FIX2_OFF,157,2026-03-22 16:33:00.547259,155.744357,0.058877,,,,,,keyboard,after digit#2,"{""note"":""after digit#2"",""pd_used"":0}",2,0.016667,60.000000,1
Sergio_G01_CNS-LLF5HT7Y0,s01,offmed_offstim,20260322_163009,2026-03-22 16:30:24.760306,NaN,1,probe,DIGIT_RECALL_LINE_3,163,2026-03-22 16:33:00.605456,155.803234,0.046105,,3,,,,keyboard,next recall question,"{""value"":3,""note"":""next recall question"",""pd_used"":1}",2,0.016667,60.000000,1
Sergio_G01_CNS-LLF5HT7Y0,s01,offmed_offstim,20260322_163009,2026-03-22 16:30:24.760306,NaN,1,probe,PROBE_DIGIT_OK_3,71,2026-03-22 16:33:01.054148,155.849339,0.495615,6.014690,slot#3,NaN,,,keyboard,probe_digit#3,"{""value"":""slot#3"",""entered"":null,""rt"":6.0146898000002693,""note"":""probe_digit#3""}",2,0.016667,60.000000,1
Sergio_G01_CNS-LLF5HT7Y0,s01,offmed_offstim,20260322_163009,2026-03-22 16:30:24.760306,NaN,1,probe,DIGIT3_OFF,148,2026-03-22 16:33:01.149967,156.344954,0.000000,,2,,,,keyboard,digit#3 off,"{""value"":2,""note"":""digit#3 off"",""pd_used"":0}",2,0.016667,60.000000,1
Sergio_G01_CNS-LLF5HT7Y0,s01,offmed_offstim,20260322_163009,2026-03-22 16:30:24.760306,NaN,1,probe,POSTDIG_FIX3_ON,153,2026-03-22 16:33:01.150704,156.344954,1.738514,,,,,,keyboard,after digit#3,"{""note"":""after digit#3""}",2,0.016667,60.000000,1
Sergio_G01_CNS-LLF5HT7Y0,s01,offmed_offstim,20260322_163009,2026-03-22 16:30:24.760306,NaN,1,probe,POSTDIG_FIX3_OFF,158,2026-03-22 16:33:02.886486,158.083468,0.058484,,,,,,keyboard,after digit#3,"{""note"":""after digit#3"",""pd_used"":0}",2,0.016667,60.000000,1
Sergio_G01_CNS-LLF5HT7Y0,s01,offmed_offstim,20260322_163009,2026-03-22 16:30:24.760306,NaN,1,probe,DIGIT_RECALL_LINE_4,164,2026-03-22 16:33:02.944135,158.141952,0.413718,,4,,,,keyboard,next recall question,"{""value"":4,""note"":""next recall question"",""pd_used"":1}",2,0.016667,60.000000,1
Sergio_G01_CNS-LLF5HT7Y0,s01,offmed_offstim,20260322_163009,2026-03-22 16:30:24.760306,NaN,1,probe,PROBE_DIGIT_OK_4,71,2026-03-22 16:33:03.895910,158.555670,0.631650,8.721021,slot#4,NaN,,,keyboard,probe_digit#4,"{""value"":""slot#4"",""entered"":null,""rt"":8.7210210000002917,""note"":""probe_digit#4""}",2,0.016667,60.000000,1
Sergio_G01_CNS-LLF5HT7Y0,s01,offmed_offstim,20260322_163009,2026-03-22 16:30:24.760306,NaN,1,probe,DIGIT4_OFF,149,2026-03-22 16:33:03.991682,159.187320,0.000000,,2,,,,keyboard,digit#4 off,"{""value"":2,""note"":""digit#4 off"",""pd_used"":0}",2,0.016667,60.000000,1
Sergio_G01_CNS-LLF5HT7Y0,s01,offmed_offstim,20260322_163009,2026-03-22 16:30:24.760306,NaN,1,probe,POSTDIG_FIX4_ON,154,2026-03-22 16:33:03.992375,159.187320,1.932156,,,,,,keyboard,after digit#4,"{""note"":""after digit#4""}",2,0.016667,60.000000,1
Sergio_G01_CNS-LLF5HT7Y0,s01,offmed_offstim,20260322_163009,2026-03-22 16:30:24.760306,NaN,1,probe,POSTDIG_FIX4_OFF,159,2026-03-22 16:33:05.922197,161.119476,0.068231,,,,,,keyboard,after digit#4,"{""note"":""after digit#4"",""pd_used"":0}",2,0.016667,60.000000,1
Sergio_G01_CNS-LLF5HT7Y0,s01,offmed_offstim,20260322_163009,2026-03-22 16:30:24.760306,NaN,1,probe,DIGIT_RECALL_LINE_5,165,2026-03-22 16:33:05.990667,161.187707,0.418997,,5,,,,keyboard,next recall question,"{""value"":5,""note"":""next recall question"",""pd_used"":1}",2,0.016667,60.000000,1
Sergio_G01_CNS-LLF5HT7Y0,s01,offmed_offstim,20260322_163009,2026-03-22 16:30:24.760306,NaN,1,probe,PROBE_DIGIT_OK_5,71,2026-03-22 16:33:06.956535,161.606704,0.639137,11.772055,slot#5,NaN,,,keyboard,probe_digit#5,"{""value"":""slot#5"",""entered"":null,""rt"":11.772054700000353,""note"":""probe_digit#5""}",2,0.016667,60.000000,1
Sergio_G01_CNS-LLF5HT7Y0,s01,offmed_offstim,20260322_163009,2026-03-22 16:30:24.760306,NaN,1,probe,DIGIT5_OFF,150,2026-03-22 16:33:07.052215,162.245841,0.000000,,2,,,,keyboard,digit#5 off,"{""value"":2,""note"":""digit#5 off"",""pd_used"":0}",2,0.016667,60.000000,1
Sergio_G01_CNS-LLF5HT7Y0,s01,offmed_offstim,20260322_163009,2026-03-22 16:30:24.760306,NaN,1,probe,POSTDIG_FIX5_ON,155,2026-03-22 16:33:07.053284,162.245841,3.345837,,,,,,keyboard,after digit#5,"{""note"":""after digit#5""}",2,0.016667,60.000000,1
Sergio_G01_CNS-LLF5HT7Y0,s01,offmed_offstim,20260322_163009,2026-03-22 16:30:24.760306,NaN,1,probe,POSTDIG_FIX5_OFF,160,2026-03-22 16:33:10.394259,165.591678,0.048629,,,,,,keyboard,after digit#5,"{""note"":""after digit#5"",""pd_used"":0}",2,0.016667,60.000000,1
Sergio_G01_CNS-LLF5HT7Y0,s01,offmed_offstim,20260322_163009,2026-03-22 16:30:24.760306,NaN,1,probe,PROBE_DONE,73,2026-03-22 16:33:10.400685,165.640307,0.000760,,,,,,keyboard,probe complete,"{""value"":"""",""note"":""probe complete""}",2,0.016667,60.000000,1
Sergio_G01_CNS-LLF5HT7Y0,s01,offmed_offstim,20260322_163009,2026-03-22 16:30:24.760306,NaN,1,probe,TRIAL_END,21,2026-03-22 16:33:10.401420,165.641067,0.044545,,,,,,keyboard,,{},2,0.016667,60.000000,1
Sergio_G01_CNS-LLF5HT7Y0,s01,offmed_offstim,20260322_163009,2026-03-22 16:30:24.760306,NaN,1,probe,BLOCK_END,11,2026-03-22 16:33:10.446603,165.685612,0.310676,,,,,,keyboard,,{},2,0.016667,60.000000,1
Sergio_G01_CNS-LLF5HT7Y0,s01,offmed_offstim,20260322_163009,2026-03-22 16:30:24.760306,NaN,1,probe,SESSION_END,3,2026-03-22 16:33:10.757065,165.996288,NaN,,,,,,keyboard,,{},2,0.016667,60.000000,1
