file_version,subject,condition,session,task_start_time,block,trial,phase,event_name,event_code,wall_clock,t_rel_sec,duration_to_next,rt,value_shown,entered_value,correct,key_name,device,note,json,screen_index,ifi,refresh_hz,pd_used
Sergio_G01_CNS-LLF5HT7Y0,S01,OFFmed_OFFstim,20260201_175616,2026-02-01 17:56:22.367684,1,NaN,,BLOCK_START,10,2026-02-01 17:56:57.978409,35.604185,0.069945,,,,,,keyboard,,{},1,0.016643,60.085935,1
Sergio_G01_CNS-LLF5HT7Y0,S01,OFFmed_OFFstim,20260201_175616,2026-02-01 17:56:22.367684,1,0,reading,START_PAGE_ON,4,2026-02-01 17:56:58.086115,35.674130,0.059651,,,,,,keyboard,,"{""pd_used"":0}",1,0.016643,60.085935,1
Sergio_G01_CNS-LLF5HT7Y0,S01,OFFmed_OFFstim,20260201_175616,2026-02-01 17:56:22.367684,1,0,reading,START_PAGE_ON,4,2026-02-01 17:56:58.086115,35.674130,7.045701,,,,,,keyboard,,"{""pd_used"":0}",1,0.016643,60.085935,1
Sergio_G01_CNS-LLF5HT7Y0,S01,OFFmed_OFFstim,20260201_175616,2026-02-01 17:56:22.367684,1,0,reading,START_PAGE_ON,4,2026-02-01 17:56:58.086115,35.674130,7.425935,,,,,,keyboard,,"{""pd_used"":0}",1,0.016643,60.085935,1
Sergio_G01_CNS-LLF5HT7Y0,S01,OFFmed_OFFstim,20260201_175616,2026-02-01 17:56:22.367684,1,0,reading,CONTROL_START,23,2026-02-01 17:57:05.468784,43.100065,0.070048,,,,,,keyboard,,{},1,0.016643,60.085935,1
Sergio_G01_CNS-LLF5HT7Y0,S01,OFFmed_OFFstim,20260201_175616,2026-02-01 17:56:22.367684,1,0,reading,DIGIT_READ1_ON,201,2026-02-01 17:57:05.582976,43.170113,0.807400,,1,,,,keyboard,digit#1 shown,"{""value"":1,""note"":""digit#1 shown"",""pd_used"":1}",1,0.016643,60.085935,1
Sergio_G01_CNS-LLF5HT7Y0,S01,OFFmed_OFFstim,20260201_175616,2026-02-01 17:56:22.367684,1,0,reading,PROBE_COUNT_OK_1,71,2026-02-01 17:57:06.726663,43.977513,0.439829,8.317931,slot#1,NaN,,,keyboard,probe_digit#1,"{""value"":""slot#1"",""entered"":null,""rt"":8.3179314000008162,""note"":""probe_digit#1""}",1,0.016643,60.085935,1
Sergio_G01_CNS-LLF5HT7Y0,S01,OFFmed_OFFstim,20260201_175616,2026-02-01 17:56:22.367684,1,0,reading,DIGIT_READ1_OFF,211,2026-02-01 17:57:06.830675,44.417342,0.000000,,1,,,,keyboard,digit#1 off,"{""value"":1,""note"":""digit#1 off"",""pd_used"":0}",1,0.016643,60.085935,1
Sergio_G01_CNS-LLF5HT7Y0,S01,OFFmed_OFFstim,20260201_175616,2026-02-01 17:56:22.367684,1,0,reading,POSTREAD_FIX1_ON,231,2026-02-01 17:57:06.833096,44.417342,1.863169,,,,,,keyboard,after digit#1,"{""note"":""after digit#1""}",1,0.016643,60.085935,1
Sergio_G01_CNS-LLF5HT7Y0,S01,OFFmed_OFFstim,20260201_175616,2026-02-01 17:56:22.367684,1,0,reading,POSTREAD_FIX1_OFF,241,2026-02-01 17:57:08.694519,46.280510,0.069749,,,,,,keyboard,after digit#1,"{""note"":""after digit#1"",""pd_used"":0}",1,0.016643,60.085935,1
Sergio_G01_CNS-LLF5HT7Y0,S01,OFFmed_OFFstim,20260201_175616,2026-02-01 17:56:22.367684,1,0,reading,DIGIT_READ2_ON,202,2026-02-01 17:57:08.762862,46.350259,1.333250,,7,,,,keyboard,digit#2 shown,"{""value"":7,""note"":""digit#2 shown"",""pd_used"":1}",1,0.016643,60.085935,1
Sergio_G01_CNS-LLF5HT7Y0,S01,OFFmed_OFFstim,20260201_175616,2026-02-01 17:56:22.367684,1,0,reading,PROBE_COUNT_OK_2,71,2026-02-01 17:57:10.604934,47.683509,0.608163,12.023928,slot#2,NaN,,,keyboard,probe_digit#2,"{""value"":""slot#2"",""entered"":null,""rt"":12.023927500005811,""note"":""probe_digit#2""}",1,0.016643,60.085935,1
Sergio_G01_CNS-LLF5HT7Y0,S01,OFFmed_OFFstim,20260201_175616,2026-02-01 17:56:22.367684,1,0,reading,DIGIT_READ2_OFF,212,2026-02-01 17:57:10.706755,48.291672,0.000000,,7,,,,keyboard,digit#2 off,"{""value"":7,""note"":""digit#2 off"",""pd_used"":0}",1,0.016643,60.085935,1
Sergio_G01_CNS-LLF5HT7Y0,S01,OFFmed_OFFstim,20260201_175616,2026-02-01 17:56:22.367684,1,0,reading,POSTREAD_FIX2_ON,232,2026-02-01 17:57:10.708887,48.291672,1.734925,,,,,,keyboard,after digit#2,"{""note"":""after digit#2""}",1,0.016643,60.085935,1
Sergio_G01_CNS-LLF5HT7Y0,S01,OFFmed_OFFstim,20260201_175616,2026-02-01 17:56:22.367684,1,0,reading,POSTREAD_FIX2_OFF,242,2026-02-01 17:57:12.440447,50.026596,0.077224,,,,,,keyboard,after digit#2,"{""note"":""after digit#2"",""pd_used"":0}",1,0.016643,60.085935,1
Sergio_G01_CNS-LLF5HT7Y0,S01,OFFmed_OFFstim,20260201_175616,2026-02-01 17:56:22.367684,1,0,reading,DIGIT_READ3_ON,203,2026-02-01 17:57:12.518285,50.103820,0.915270,,9,,,,keyboard,digit#3 shown,"{""value"":9,""note"":""digit#3 shown"",""pd_used"":1}",1,0.016643,60.085935,1
Sergio_G01_CNS-LLF5HT7Y0,S01,OFFmed_OFFstim,20260201_175616,2026-02-01 17:56:22.367684,1,0,reading,PROBE_COUNT_OK_3,71,2026-02-01 17:57:13.926943,51.019090,0.595297,15.359508,slot#3,NaN,,,keyboard,probe_digit#3,"{""value"":""slot#3"",""entered"":null,""rt"":15.35950830001093,""note"":""probe_digit#3""}",1,0.016643,60.085935,1
Sergio_G01_CNS-LLF5HT7Y0,S01,OFFmed_OFFstim,20260201_175616,2026-02-01 17:56:22.367684,1,0,reading,DIGIT_READ3_OFF,213,2026-02-01 17:57:14.029317,51.614387,0.000000,,9,,,,keyboard,digit#3 off,"{""value"":9,""note"":""digit#3 off"",""pd_used"":0}",1,0.016643,60.085935,1
Sergio_G01_CNS-LLF5HT7Y0,S01,OFFmed_OFFstim,20260201_175616,2026-02-01 17:56:22.367684,1,0,reading,POSTREAD_FIX3_ON,233,2026-02-01 17:57:14.031567,51.614387,1.573361,,,,,,keyboard,after digit#3,"{""note"":""after digit#3""}",1,0.016643,60.085935,1
Sergio_G01_CNS-LLF5HT7Y0,S01,OFFmed_OFFstim,20260201_175616,2026-02-01 17:56:22.367684,1,0,reading,POSTREAD_FIX3_OFF,243,2026-02-01 17:57:15.601376,53.187749,0.065571,,,,,,keyboard,after digit#3,"{""note"":""after digit#3"",""pd_used"":0}",1,0.016643,60.085935,1
Sergio_G01_CNS-LLF5HT7Y0,S01,OFFmed_OFFstim,20260201_175616,2026-02-01 17:56:22.367684,1,0,reading,DIGIT_READ4_ON,204,2026-02-01 17:57:15.666556,53.253320,0.992016,,0,,,,keyboard,digit#4 shown,"{""value"":0,""note"":""digit#4 shown"",""pd_used"":1}",1,0.016643,60.085935,1
Sergio_G01_CNS-LLF5HT7Y0,S01,OFFmed_OFFstim,20260201_175616,2026-02-01 17:56:22.367684,1,0,reading,PROBE_COUNT_OK_4,71,2026-02-01 17:57:17.188689,54.245336,0.630478,18.585754,slot#4,NaN,,,keyboard,probe_digit#4,"{""value"":""slot#4"",""entered"":null,""rt"":18.585754200001247,""note"":""probe_digit#4""}",1,0.016643,60.085935,1
Sergio_G01_CNS-LLF5HT7Y0,S01,OFFmed_OFFstim,20260201_175616,2026-02-01 17:56:22.367684,1,0,reading,DIGIT_READ4_OFF,214,2026-02-01 17:57:17.291401,54.875814,0.000000,,0,,,,keyboard,digit#4 off,"{""value"":0,""note"":""digit#4 off"",""pd_used"":0}",1,0.016643,60.085935,1
Sergio_G01_CNS-LLF5HT7Y0,S01,OFFmed_OFFstim,20260201_175616,2026-02-01 17:56:22.367684,1,0,reading,POSTREAD_FIX4_ON,234,2026-02-01 17:57:17.293652,54.875814,1.936651,,,,,,keyboard,after digit#4,"{""note"":""after digit#4""}",1,0.016643,60.085935,1
Sergio_G01_CNS-LLF5HT7Y0,S01,OFFmed_OFFstim,20260201_175616,2026-02-01 17:56:22.367684,1,0,reading,POSTREAD_FIX4_OFF,244,2026-02-01 17:57:19.225968,56.812465,0.072608,,,,,,keyboard,after digit#4,"{""note"":""after digit#4"",""pd_used"":0}",1,0.016643,60.085935,1
Sergio_G01_CNS-LLF5HT7Y0,S01,OFFmed_OFFstim,20260201_175616,2026-02-01 17:56:22.367684,1,0,reading,DIGIT_READ5_ON,205,2026-02-01 17:57:19.298461,56.885073,0.779981,,2,,,,keyboard,digit#5 shown,"{""value"":2,""note"":""digit#5 shown"",""pd_used"":1}",1,0.016643,60.085935,1
Sergio_G01_CNS-LLF5HT7Y0,S01,OFFmed_OFFstim,20260201_175616,2026-02-01 17:56:22.367684,1,0,reading,PROBE_COUNT_OK_5,71,2026-02-01 17:57:20.585631,57.665054,0.608362,22.005473,slot#5,NaN,,,keyboard,probe_digit#5,"{""value"":""slot#5"",""entered"":null,""rt"":22.005472700009705,""note"":""probe_digit#5""}",1,0.016643,60.085935,1
Sergio_G01_CNS-LLF5HT7Y0,S01,OFFmed_OFFstim,20260201_175616,2026-02-01 17:56:22.367684,1,0,reading,DIGIT_READ5_OFF,215,2026-02-01 17:57:20.687118,58.273417,0.000000,,2,,,,keyboard,digit#5 off,"{""value"":2,""note"":""digit#5 off"",""pd_used"":0}",1,0.016643,60.085935,1
Sergio_G01_CNS-LLF5HT7Y0,S01,OFFmed_OFFstim,20260201_175616,2026-02-01 17:56:22.367684,1,0,reading,POSTREAD_FIX5_ON,235,2026-02-01 17:57:20.689549,58.273417,1.602854,,,,,,keyboard,after digit#5,"{""note"":""after digit#5""}",1,0.016643,60.085935,1
Sergio_G01_CNS-LLF5HT7Y0,S01,OFFmed_OFFstim,20260201_175616,2026-02-01 17:56:22.367684,1,0,reading,POSTREAD_FIX5_OFF,245,2026-02-01 17:57:22.290292,59.876271,0.074410,,,,,,keyboard,after digit#5,"{""note"":""after digit#5"",""pd_used"":0}",1,0.016643,60.085935,1
Sergio_G01_CNS-LLF5HT7Y0,S01,OFFmed_OFFstim,20260201_175616,2026-02-01 17:56:22.367684,1,0,reading,DIGIT_READ6_ON,206,2026-02-01 17:57:22.365079,59.950681,0.743709,,2,,,,keyboard,digit#6 shown,"{""value"":2,""note"":""digit#6 shown"",""pd_used"":1}",1,0.016643,60.085935,1
Sergio_G01_CNS-LLF5HT7Y0,S01,OFFmed_OFFstim,20260201_175616,2026-02-01 17:56:22.367684,1,0,reading,PROBE_COUNT_OK_6,71,2026-02-01 17:57:23.588292,60.694390,0.580561,25.034809,slot#6,NaN,,,keyboard,probe_digit#6,"{""value"":""slot#6"",""entered"":null,""rt"":25.034808500000509,""note"":""probe_digit#6""}",1,0.016643,60.085935,1
Sergio_G01_CNS-LLF5HT7Y0,S01,OFFmed_OFFstim,20260201_175616,2026-02-01 17:56:22.367684,1,0,reading,DIGIT_READ6_OFF,216,2026-02-01 17:57:23.689131,61.274950,0.000000,,2,,,,keyboard,digit#6 off,"{""value"":2,""note"":""digit#6 off"",""pd_used"":0}",1,0.016643,60.085935,1
Sergio_G01_CNS-LLF5HT7Y0,S01,OFFmed_OFFstim,20260201_175616,2026-02-01 17:56:22.367684,1,0,reading,POSTREAD_FIX6_ON,236,2026-02-01 17:57:23.690802,61.274950,1.895257,,,,,,keyboard,after digit#6,"{""note"":""after digit#6""}",1,0.016643,60.085935,1
Sergio_G01_CNS-LLF5HT7Y0,S01,OFFmed_OFFstim,20260201_175616,2026-02-01 17:56:22.367684,1,0,reading,POSTREAD_FIX6_OFF,246,2026-02-01 17:57:25.584115,63.170207,0.063701,,,,,,keyboard,after digit#6,"{""note"":""after digit#6"",""pd_used"":0}",1,0.016643,60.085935,1
Sergio_G01_CNS-LLF5HT7Y0,S01,OFFmed_OFFstim,20260201_175616,2026-02-01 17:56:22.367684,1,0,reading,DIGIT_READ7_ON,207,2026-02-01 17:57:25.647578,63.233908,1.036559,,1,,,,keyboard,digit#7 shown,"{""value"":1,""note"":""digit#7 shown"",""pd_used"":1}",1,0.016643,60.085935,1
Sergio_G01_CNS-LLF5HT7Y0,S01,OFFmed_OFFstim,20260201_175616,2026-02-01 17:56:22.367684,1,0,reading,PROBE_COUNT_OK_7,71,2026-02-01 17:57:27.125358,64.270467,0.540391,28.610885,slot#7,NaN,,,keyboard,probe_digit#7,"{""value"":""slot#7"",""entered"":null,""rt"":28.610885400004918,""note"":""probe_digit#7""}",1,0.016643,60.085935,1
Sergio_G01_CNS-LLF5HT7Y0,S01,OFFmed_OFFstim,20260201_175616,2026-02-01 17:56:22.367684,1,0,reading,DIGIT_READ7_OFF,217,2026-02-01 17:57:27.230101,64.810858,0.000000,,1,,,,keyboard,digit#7 off,"{""value"":1,""note"":""digit#7 off"",""pd_used"":0}",1,0.016643,60.085935,1
Sergio_G01_CNS-LLF5HT7Y0,S01,OFFmed_OFFstim,20260201_175616,2026-02-01 17:56:22.367684,1,0,reading,POSTREAD_FIX7_ON,237,2026-02-01 17:57:27.232303,64.810858,1.704072,,,,,,keyboard,after digit#7,"{""note"":""after digit#7""}",1,0.016643,60.085935,1
Sergio_G01_CNS-LLF5HT7Y0,S01,OFFmed_OFFstim,20260201_175616,2026-02-01 17:56:22.367684,1,0,reading,POSTREAD_FIX7_OFF,247,2026-02-01 17:57:28.929450,66.514930,0.067943,,,,,,keyboard,after digit#7,"{""note"":""after digit#7"",""pd_used"":0}",1,0.016643,60.085935,1
Sergio_G01_CNS-LLF5HT7Y0,S01,OFFmed_OFFstim,20260201_175616,2026-02-01 17:56:22.367684,1,0,reading,DIGIT_READ8_ON,208,2026-02-01 17:57:28.996274,66.582873,0.577595,,6,,,,keyboard,digit#8 shown,"{""value"":6,""note"":""digit#8 shown"",""pd_used"":1}",1,0.016643,60.085935,1
Sergio_G01_CNS-LLF5HT7Y0,S01,OFFmed_OFFstim,20260201_175616,2026-02-01 17:56:22.367684,1,0,reading,PROBE_COUNT_OK_8,71,2026-02-01 17:57:30.047920,67.160469,0.573002,31.500887,slot#8,NaN,,,keyboard,probe_digit#8,"{""value"":""slot#8"",""entered"":null,""rt"":31.500887300004251,""note"":""probe_digit#8""}",1,0.016643,60.085935,1
Sergio_G01_CNS-LLF5HT7Y0,S01,OFFmed_OFFstim,20260201_175616,2026-02-01 17:56:22.367684,1,0,reading,DIGIT_READ8_OFF,218,2026-02-01 17:57:30.148054,67.733471,0.000000,,6,,,,keyboard,digit#8 off,"{""value"":6,""note"":""digit#8 off"",""pd_used"":0}",1,0.016643,60.085935,1
Sergio_G01_CNS-LLF5HT7Y0,S01,OFFmed_OFFstim,20260201_175616,2026-02-01 17:56:22.367684,1,0,reading,POSTREAD_FIX8_ON,238,2026-02-01 17:57:30.150090,67.733471,1.664001,,,,,,keyboard,after digit#8,"{""note"":""after digit#8""}",1,0.016643,60.085935,1
Sergio_G01_CNS-LLF5HT7Y0,S01,OFFmed_OFFstim,20260201_175616,2026-02-01 17:56:22.367684,1,0,reading,POSTREAD_FIX8_OFF,248,2026-02-01 17:57:31.810898,69.397473,0.069025,,,,,,keyboard,after digit#8,"{""note"":""after digit#8"",""pd_used"":0}",1,0.016643,60.085935,1
Sergio_G01_CNS-LLF5HT7Y0,S01,OFFmed_OFFstim,20260201_175616,2026-02-01 17:56:22.367684,1,0,reading,DIGIT_READ9_ON,209,2026-02-01 17:57:31.879098,69.466498,0.935400,,3,,,,keyboard,digit#9 shown,"{""value"":3,""note"":""digit#9 shown"",""pd_used"":1}",1,0.016643,60.085935,1
Sergio_G01_CNS-LLF5HT7Y0,S01,OFFmed_OFFstim,20260201_175616,2026-02-01 17:56:22.367684,1,0,reading,PROBE_COUNT_OK_9,71,2026-02-01 17:57:33.307034,70.401897,0.591671,34.742316,slot#9,NaN,,,keyboard,probe_digit#9,"{""value"":""slot#9"",""entered"":null,""rt"":34.742315800001961,""note"":""probe_digit#9""}",1,0.016643,60.085935,1
Sergio_G01_CNS-LLF5HT7Y0,S01,OFFmed_OFFstim,20260201_175616,2026-02-01 17:56:22.367684,1,0,reading,DIGIT_READ9_OFF,219,2026-02-01 17:57:33.408489,70.993568,0.000000,,3,,,,keyboard,digit#9 off,"{""value"":3,""note"":""digit#9 off"",""pd_used"":0}",1,0.016643,60.085935,1
Sergio_G01_CNS-LLF5HT7Y0,S01,OFFmed_OFFstim,20260201_175616,2026-02-01 17:56:22.367684,1,0,reading,POSTREAD_FIX9_ON,239,2026-02-01 17:57:33.411093,70.993568,1.887579,,,,,,keyboard,after digit#9,"{""note"":""after digit#9""}",1,0.016643,60.085935,1
Sergio_G01_CNS-LLF5HT7Y0,S01,OFFmed_OFFstim,20260201_175616,2026-02-01 17:56:22.367684,1,0,reading,POSTREAD_FIX9_OFF,249,2026-02-01 17:57:35.294798,72.881147,0.068363,,,,,,keyboard,after digit#9,"{""note"":""after digit#9"",""pd_used"":0}",1,0.016643,60.085935,1
Sergio_G01_CNS-LLF5HT7Y0,S01,OFFmed_OFFstim,20260201_175616,2026-02-01 17:56:22.367684,1,0,reading,DIGIT_READ10_ON,210,2026-02-01 17:57:35.362689,72.949510,0.806097,,8,,,,keyboard,digit#10 shown,"{""value"":8,""note"":""digit#10 shown"",""pd_used"":1}",1,0.016643,60.085935,1
Sergio_G01_CNS-LLF5HT7Y0,S01,OFFmed_OFFstim,20260201_175616,2026-02-01 17:56:22.367684,1,0,reading,PROBE_COUNT_OK_10,71,2026-02-01 17:57:36.647641,73.755607,0.577378,38.096026,slot#10,NaN,,,keyboard,probe_digit#10,"{""value"":""slot#10"",""entered"":null,""rt"":38.09602550001,""note"":""probe_digit#10""}",1,0.016643,60.085935,1
Sergio_G01_CNS-LLF5HT7Y0,S01,OFFmed_OFFstim,20260201_175616,2026-02-01 17:56:22.367684,1,0,reading,DIGIT_READ10_OFF,220,2026-02-01 17:57:36.748478,74.332985,0.000000,,8,,,,keyboard,digit#10 off,"{""value"":8,""note"":""digit#10 off"",""pd_used"":0}",1,0.016643,60.085935,1
Sergio_G01_CNS-LLF5HT7Y0,S01,OFFmed_OFFstim,20260201_175616,2026-02-01 17:56:22.367684,1,0,reading,POSTREAD_FIX10_ON,240,2026-02-01 17:57:36.750854,74.332985,3.406940,,,,,,keyboard,after digit#10,"{""note"":""after digit#10""}",1,0.016643,60.085935,1
Sergio_G01_CNS-LLF5HT7Y0,S01,OFFmed_OFFstim,20260201_175616,2026-02-01 17:56:22.367684,1,0,reading,POSTREAD_FIX10_OFF,250,2026-02-01 17:57:40.152509,77.739925,0.052735,,,,,,keyboard,after digit#10,"{""note"":""after digit#10"",""pd_used"":0}",1,0.016643,60.085935,1
Sergio_G01_CNS-LLF5HT7Y0,S01,OFFmed_OFFstim,20260201_175616,2026-02-01 17:56:22.367684,1,0,reading,CONTROL_END,24,2026-02-01 17:57:40.161259,77.792660,0.055522,,,,,,keyboard,,{},1,0.016643,60.085935,1
Sergio_G01_CNS-LLF5HT7Y0,S01,OFFmed_OFFstim,20260201_175616,2026-02-01 17:56:22.367684,1,0,reading,START_PAGE_ON,4,2026-02-01 17:57:40.262212,77.848182,0.058819,,,,,,keyboard,,"{""pd_used"":0}",1,0.016643,60.085935,1
Sergio_G01_CNS-LLF5HT7Y0,S01,OFFmed_OFFstim,20260201_175616,2026-02-01 17:56:22.367684,1,0,reading,START_PAGE_ON,4,2026-02-01 17:57:40.262212,77.848182,2.820041,,,,,,keyboard,,"{""pd_used"":0}",1,0.016643,60.085935,1
Sergio_G01_CNS-LLF5HT7Y0,S01,OFFmed_OFFstim,20260201_175616,2026-02-01 17:56:22.367684,1,0,reading,START_PAGE_ON,4,2026-02-01 17:57:40.262212,77.848182,3.177402,,,,,,keyboard,,"{""pd_used"":0}",1,0.016643,60.085935,1
Sergio_G01_CNS-LLF5HT7Y0,S01,OFFmed_OFFstim,20260201_175616,2026-02-01 17:56:22.367684,1,0,reading,SESSION_START,1,2026-02-01 17:57:43.394579,81.025584,0.023517,,,,,,keyboard,,{},1,0.016643,60.085935,1
Sergio_G01_CNS-LLF5HT7Y0,S01,OFFmed_OFFstim,20260201_175616,2026-02-01 17:56:22.367684,1,1,reading,TRIAL_CHANGE,22,2026-02-01 17:57:43.418032,81.049101,0.003108,,,,,,keyboard,trial transition,"{""note"":""trial transition""}",1,0.016643,60.085935,1
Sergio_G01_CNS-LLF5HT7Y0,S01,OFFmed_OFFstim,20260201_175616,2026-02-01 17:56:22.367684,1,1,reading,TRIAL_START,20,2026-02-01 17:57:43.420315,81.052209,0.059333,,,,,,keyboard,,{},1,0.016643,60.085935,1
Sergio_G01_CNS-LLF5HT7Y0,S01,OFFmed_OFFstim,20260201_175616,2026-02-01 17:56:22.367684,1,1,fix1,FIX1_ON,30,2026-02-01 17:57:43.524193,81.111542,3.418647,,,,,,keyboard,,"{""pd_used"":0}",1,0.016643,60.085935,1
Sergio_G01_CNS-LLF5HT7Y0,S01,OFFmed_OFFstim,20260201_175616,2026-02-01 17:56:22.367684,1,1,fix1,FIX1_OFF,31,2026-02-01 17:57:46.944287,84.530189,0.056878,,,,,,keyboard,,"{""pd_used"":0}",1,0.016643,60.085935,1
Sergio_G01_CNS-LLF5HT7Y0,S01,OFFmed_OFFstim,20260201_175616,2026-02-01 17:56:22.367684,1,1,digit,DIGIT1_ON,141,2026-02-01 17:57:47.000815,84.587067,0.557341,,2,,,,keyboard,digit#1 shown,"{""value"":2,""note"":""digit#1 shown"",""pd_used"":1}",1,0.016643,60.085935,1
Sergio_G01_CNS-LLF5HT7Y0,S01,OFFmed_OFFstim,20260201_175616,2026-02-01 17:56:22.367684,1,1,digit,DIGIT1_OFF,146,2026-02-01 17:57:47.558288,85.144409,0.000000,,2,,,,keyboard,digit#1 off,"{""value"":2,""note"":""digit#1 off"",""pd_used"":0}",1,0.016643,60.085935,1
Sergio_G01_CNS-LLF5HT7Y0,S01,OFFmed_OFFstim,20260201_175616,2026-02-01 17:56:22.367684,1,1,digit,POSTDIG_FIX1_ON,151,2026-02-01 17:57:47.560336,85.144409,1.745825,,,,,,keyboard,after digit#1,"{""note"":""after digit#1""}",1,0.016643,60.085935,1
Sergio_G01_CNS-LLF5HT7Y0,S01,OFFmed_OFFstim,20260201_175616,2026-02-01 17:56:22.367684,1,1,digit,POSTDIG_FIX1_OFF,156,2026-02-01 17:57:49.304152,86.890233,0.057129,,,,,,keyboard,after digit#1,"{""note"":""after digit#1"",""pd_used"":0}",1,0.016643,60.085935,1
Sergio_G01_CNS-LLF5HT7Y0,S01,OFFmed_OFFstim,20260201_175616,2026-02-01 17:56:22.367684,1,1,digit,DIGIT2_ON,142,2026-02-01 17:57:49.360854,86.947362,0.556552,,8,,,,keyboard,digit#2 shown,"{""value"":8,""note"":""digit#2 shown"",""pd_used"":1}",1,0.016643,60.085935,1
Sergio_G01_CNS-LLF5HT7Y0,S01,OFFmed_OFFstim,20260201_175616,2026-02-01 17:56:22.367684,1,1,digit,DIGIT2_OFF,147,2026-02-01 17:57:49.917443,87.503914,0.000000,,8,,,,keyboard,digit#2 off,"{""value"":8,""note"":""digit#2 off"",""pd_used"":0}",1,0.016643,60.085935,1
Sergio_G01_CNS-LLF5HT7Y0,S01,OFFmed_OFFstim,20260201_175616,2026-02-01 17:56:22.367684,1,1,digit,POSTDIG_FIX2_ON,152,2026-02-01 17:57:49.919619,87.503914,1.664494,,,,,,keyboard,after digit#2,"{""note"":""after digit#2""}",1,0.016643,60.085935,1
Sergio_G01_CNS-LLF5HT7Y0,S01,OFFmed_OFFstim,20260201_175616,2026-02-01 17:56:22.367684,1,1,digit,POSTDIG_FIX2_OFF,157,2026-02-01 17:57:51.581623,89.168408,0.056306,,,,,,keyboard,after digit#2,"{""note"":""after digit#2"",""pd_used"":0}",1,0.016643,60.085935,1
Sergio_G01_CNS-LLF5HT7Y0,S01,OFFmed_OFFstim,20260201_175616,2026-02-01 17:56:22.367684,1,1,digit,DIGIT3_ON,143,2026-02-01 17:57:51.638432,89.224715,0.557309,,2,,,,keyboard,digit#3 shown,"{""value"":2,""note"":""digit#3 shown"",""pd_used"":1}",1,0.016643,60.085935,1
Sergio_G01_CNS-LLF5HT7Y0,S01,OFFmed_OFFstim,20260201_175616,2026-02-01 17:56:22.367684,1,1,digit,DIGIT3_OFF,148,2026-02-01 17:57:52.195387,89.782023,0.000000,,2,,,,keyboard,digit#3 off,"{""value"":2,""note"":""digit#3 off"",""pd_used"":0}",1,0.016643,60.085935,1
Sergio_G01_CNS-LLF5HT7Y0,S01,OFFmed_OFFstim,20260201_175616,2026-02-01 17:56:22.367684,1,1,digit,POSTDIG_FIX3_ON,153,2026-02-01 17:57:52.197560,89.782023,1.570320,,,,,,keyboard,after digit#3,"{""note"":""after digit#3""}",1,0.016643,60.085935,1
Sergio_G01_CNS-LLF5HT7Y0,S01,OFFmed_OFFstim,20260201_175616,2026-02-01 17:56:22.367684,1,1,digit,POSTDIG_FIX3_OFF,158,2026-02-01 17:57:53.764473,91.352343,0.054704,,,,,,keyboard,after digit#3,"{""note"":""after digit#3"",""pd_used"":0}",1,0.016643,60.085935,1
Sergio_G01_CNS-LLF5HT7Y0,S01,OFFmed_OFFstim,20260201_175616,2026-02-01 17:56:22.367684,1,1,digit,DIGIT4_ON,144,2026-02-01 17:57:53.820354,91.407048,0.556865,,1,,,,keyboard,digit#4 shown,"{""value"":1,""note"":""digit#4 shown"",""pd_used"":1}",1,0.016643,60.085935,1
Sergio_G01_CNS-LLF5HT7Y0,S01,OFFmed_OFFstim,20260201_175616,2026-02-01 17:56:22.367684,1,1,digit,DIGIT4_OFF,149,2026-02-01 17:57:54.378295,91.963912,0.000000,,1,,,,keyboard,digit#4 off,"{""value"":1,""note"":""digit#4 off"",""pd_used"":0}",1,0.016643,60.085935,1
Sergio_G01_CNS-LLF5HT7Y0,S01,OFFmed_OFFstim,20260201_175616,2026-02-01 17:56:22.367684,1,1,digit,POSTDIG_FIX4_ON,154,2026-02-01 17:57:54.381016,91.963912,1.742310,,,,,,keyboard,after digit#4,"{""note"":""after digit#4""}",1,0.016643,60.085935,1
Sergio_G01_CNS-LLF5HT7Y0,S01,OFFmed_OFFstim,20260201_175616,2026-02-01 17:56:22.367684,1,1,digit,POSTDIG_FIX4_OFF,159,2026-02-01 17:57:56.120042,93.706223,0.056869,,,,,,keyboard,after digit#4,"{""note"":""after digit#4"",""pd_used"":0}",1,0.016643,60.085935,1
Sergio_G01_CNS-LLF5HT7Y0,S01,OFFmed_OFFstim,20260201_175616,2026-02-01 17:56:22.367684,1,1,digit,DIGIT5_ON,145,2026-02-01 17:57:56.176670,93.763092,0.556996,,9,,,,keyboard,digit#5 shown,"{""value"":9,""note"":""digit#5 shown"",""pd_used"":1}",1,0.016643,60.085935,1
Sergio_G01_CNS-LLF5HT7Y0,S01,OFFmed_OFFstim,20260201_175616,2026-02-01 17:56:22.367684,1,1,digit,DIGIT5_OFF,150,2026-02-01 17:57:56.732854,94.320088,0.000000,,9,,,,keyboard,digit#5 off,"{""value"":9,""note"":""digit#5 off"",""pd_used"":0}",1,0.016643,60.085935,1
Sergio_G01_CNS-LLF5HT7Y0,S01,OFFmed_OFFstim,20260201_175616,2026-02-01 17:56:22.367684,1,1,digit,POSTDIG_FIX5_ON,155,2026-02-01 17:57:56.735170,94.320088,3.172145,,,,,,keyboard,after digit#5,"{""note"":""after digit#5""}",1,0.016643,60.085935,1
Sergio_G01_CNS-LLF5HT7Y0,S01,OFFmed_OFFstim,20260201_175616,2026-02-01 17:56:22.367684,1,1,digit,POSTDIG_FIX5_OFF,160,2026-02-01 17:57:59.904471,97.492233,0.057495,,,,,,keyboard,after digit#5,"{""note"":""after digit#5"",""pd_used"":0}",1,0.016643,60.085935,1
Sergio_G01_CNS-LLF5HT7Y0,S01,OFFmed_OFFstim,20260201_175616,2026-02-01 17:56:22.367684,1,1,distractor,DISTRACTOR_ON,50,2026-02-01 17:57:59.961929,97.549728,2.025624,,9+0=9,,,,keyboard,,"{""value"":""9+0=9"",""isCorrectTruth"":true,""trueSum"":9,""pd_used"":1}",1,0.016643,60.085935,1
Sergio_G01_CNS-LLF5HT7Y0,S01,OFFmed_OFFstim,20260201_175616,2026-02-01 17:56:22.367684,1,1,distractor,DISTRACTOR_ANS,51,2026-02-01 17:58:02.528939,99.575352,0.000000,2.025624,9+0=9,F,0,,keyboard,key= (False),"{""value"":""9+0=9"",""entered"":""F"",""rt"":2.02562410000246,""correct"":0,""note"":""key= (False)"",""truth"":true,""trueSum"":9,""shownSum"":9,""a"":9,""b"":0}",1,0.016643,60.085935,1
Sergio_G01_CNS-LLF5HT7Y0,S01,OFFmed_OFFstim,20260201_175616,2026-02-01 17:56:22.367684,1,1,distractor,ANS_WRONG,101,2026-02-01 17:58:02.576993,99.575352,0.642850,,,,,,keyboard,,{},1,0.016643,60.085935,1
Sergio_G01_CNS-LLF5HT7Y0,S01,OFFmed_OFFstim,20260201_175616,2026-02-01 17:56:22.367684,1,1,distractor,DISTRACTOR_OFF,52,2026-02-01 17:58:02.631284,100.218202,0.000000,,,,,,keyboard,,"{""pd_used"":0}",1,0.016643,60.085935,1
Sergio_G01_CNS-LLF5HT7Y0,S01,OFFmed_OFFstim,20260201_175616,2026-02-01 17:56:22.367684,1,1,distractor,FIX2_ON,60,2026-02-01 17:58:02.633406,100.218202,3.311044,,,,,,keyboard,immediate after response,"{""note"":""immediate after response""}",1,0.016643,60.085935,1
Sergio_G01_CNS-LLF5HT7Y0,S01,OFFmed_OFFstim,20260201_175616,2026-02-01 17:56:22.367684,1,1,fix2,FIX2_OFF,61,2026-02-01 17:58:05.942214,103.529246,0.056358,,,,,,keyboard,,"{""pd_used"":0}",1,0.016643,60.085935,1
Sergio_G01_CNS-LLF5HT7Y0,S01,OFFmed_OFFstim,20260201_175616,2026-02-01 17:56:22.367684,1,1,probe,DIGIT_RECALL_LINE_1,161,2026-02-01 17:58:05.998848,103.585604,0.620292,,1,,,,keyboard,first recall question,"{""value"":1,""note"":""first recall question"",""pd_used"":1}",1,0.016643,60.085935,1
Sergio_G01_CNS-LLF5HT7Y0,S01,OFFmed_OFFstim,20260201_175616,2026-02-01 17:56:22.367684,1,1,probe,PROBE_DIGIT_OK_1,71,2026-02-01 17:58:07.107266,104.205896,0.589102,0.629580,slot#1,NaN,,,keyboard,probe_digit#1,"{""value"":""slot#1"",""entered"":null,""rt"":0.6295797000057064,""note"":""probe_digit#1""}",1,0.016643,60.085935,1
Sergio_G01_CNS-LLF5HT7Y0,S01,OFFmed_OFFstim,20260201_175616,2026-02-01 17:56:22.367684,1,1,probe,DIGIT1_OFF,146,2026-02-01 17:58:07.210379,104.794998,0.000000,,9,,,,keyboard,digit#1 off,"{""value"":9,""note"":""digit#1 off"",""pd_used"":0}",1,0.016643,60.085935,1
Sergio_G01_CNS-LLF5HT7Y0,S01,OFFmed_OFFstim,20260201_175616,2026-02-01 17:56:22.367684,1,1,probe,POSTDIG_FIX1_ON,151,2026-02-01 17:58:07.212961,104.794998,1.897332,,,,,,keyboard,after digit#1,"{""note"":""after digit#1""}",1,0.016643,60.085935,1
Sergio_G01_CNS-LLF5HT7Y0,S01,OFFmed_OFFstim,20260201_175616,2026-02-01 17:56:22.367684,1,1,probe,POSTDIG_FIX1_OFF,156,2026-02-01 17:58:09.105210,106.692330,0.063236,,,,,,keyboard,after digit#1,"{""note"":""after digit#1"",""pd_used"":0}",1,0.016643,60.085935,1
Sergio_G01_CNS-LLF5HT7Y0,S01,OFFmed_OFFstim,20260201_175616,2026-02-01 17:56:22.367684,1,1,probe,DIGIT_RECALL_LINE_2,162,2026-02-01 17:58:09.168876,106.755566,0.649877,,2,,,,keyboard,next recall question,"{""value"":2,""note"":""next recall question"",""pd_used"":1}",1,0.016643,60.085935,1
Sergio_G01_CNS-LLF5HT7Y0,S01,OFFmed_OFFstim,20260201_175616,2026-02-01 17:56:22.367684,1,1,probe,PROBE_DIGIT_OK_2,71,2026-02-01 17:58:10.307153,107.405443,0.588441,3.829127,slot#2,NaN,,,keyboard,probe_digit#2,"{""value"":""slot#2"",""entered"":null,""rt"":3.8291269000037573,""note"":""probe_digit#2""}",1,0.016643,60.085935,1
Sergio_G01_CNS-LLF5HT7Y0,S01,OFFmed_OFFstim,20260201_175616,2026-02-01 17:56:22.367684,1,1,probe,DIGIT2_OFF,147,2026-02-01 17:58:10.408142,107.993884,0.000000,,9,,,,keyboard,digit#2 off,"{""value"":9,""note"":""digit#2 off"",""pd_used"":0}",1,0.016643,60.085935,1
Sergio_G01_CNS-LLF5HT7Y0,S01,OFFmed_OFFstim,20260201_175616,2026-02-01 17:56:22.367684,1,1,probe,POSTDIG_FIX2_ON,152,2026-02-01 17:58:10.410634,107.993884,1.942357,,,,,,keyboard,after digit#2,"{""note"":""after digit#2""}",1,0.016643,60.085935,1
Sergio_G01_CNS-LLF5HT7Y0,S01,OFFmed_OFFstim,20260201_175616,2026-02-01 17:56:22.367684,1,1,probe,POSTDIG_FIX2_OFF,157,2026-02-01 17:58:12.349627,109.936241,0.063768,,,,,,keyboard,after digit#2,"{""note"":""after digit#2"",""pd_used"":0}",1,0.016643,60.085935,1
Sergio_G01_CNS-LLF5HT7Y0,S01,OFFmed_OFFstim,20260201_175616,2026-02-01 17:56:22.367684,1,1,probe,DIGIT_RECALL_LINE_3,163,2026-02-01 17:58:12.414385,110.000009,0.807562,,3,,,,keyboard,next recall question,"{""value"":3,""note"":""next recall question"",""pd_used"":1}",1,0.016643,60.085935,1
Sergio_G01_CNS-LLF5HT7Y0,S01,OFFmed_OFFstim,20260201_175616,2026-02-01 17:56:22.367684,1,1,probe,PROBE_DIGIT_OK_3,71,2026-02-01 17:58:13.756846,110.807571,0.636760,7.231254,slot#3,NaN,,,keyboard,probe_digit#3,"{""value"":""slot#3"",""entered"":null,""rt"":7.2312541999999667,""note"":""probe_digit#3""}",1,0.016643,60.085935,1
Sergio_G01_CNS-LLF5HT7Y0,S01,OFFmed_OFFstim,20260201_175616,2026-02-01 17:56:22.367684,1,1,probe,DIGIT3_OFF,148,2026-02-01 17:58:13.857071,111.444330,0.000000,,9,,,,keyboard,digit#3 off,"{""value"":9,""note"":""digit#3 off"",""pd_used"":0}",1,0.016643,60.085935,1
Sergio_G01_CNS-LLF5HT7Y0,S01,OFFmed_OFFstim,20260201_175616,2026-02-01 17:56:22.367684,1,1,probe,POSTDIG_FIX3_ON,153,2026-02-01 17:58:13.859280,111.444330,1.974008,,,,,,keyboard,after digit#3,"{""note"":""after digit#3""}",1,0.016643,60.085935,1
Sergio_G01_CNS-LLF5HT7Y0,S01,OFFmed_OFFstim,20260201_175616,2026-02-01 17:56:22.367684,1,1,probe,POSTDIG_FIX3_OFF,158,2026-02-01 17:58:15.831824,113.418338,0.063400,,,,,,keyboard,after digit#3,"{""note"":""after digit#3"",""pd_used"":0}",1,0.016643,60.085935,1
Sergio_G01_CNS-LLF5HT7Y0,S01,OFFmed_OFFstim,20260201_175616,2026-02-01 17:56:22.367684,1,1,probe,DIGIT_RECALL_LINE_4,164,2026-02-01 17:58:15.895424,113.481738,1.087063,,4,,,,keyboard,next recall question,"{""value"":4,""note"":""next recall question"",""pd_used"":1}",1,0.016643,60.085935,1
Sergio_G01_CNS-LLF5HT7Y0,S01,OFFmed_OFFstim,20260201_175616,2026-02-01 17:56:22.367684,1,1,probe,PROBE_DIGIT_OK_4,71,2026-02-01 17:58:17.427674,114.568801,0.545490,10.992485,slot#4,NaN,,,keyboard,probe_digit#4,"{""value"":""slot#4"",""entered"":null,""rt"":10.992484500005958,""note"":""probe_digit#4""}",1,0.016643,60.085935,1
Sergio_G01_CNS-LLF5HT7Y0,S01,OFFmed_OFFstim,20260201_175616,2026-02-01 17:56:22.367684,1,1,probe,DIGIT4_OFF,149,2026-02-01 17:58:17.529420,115.114291,0.000000,,9,,,,keyboard,digit#4 off,"{""value"":9,""note"":""digit#4 off"",""pd_used"":0}",1,0.016643,60.085935,1
Sergio_G01_CNS-LLF5HT7Y0,S01,OFFmed_OFFstim,20260201_175616,2026-02-01 17:56:22.367684,1,1,probe,POSTDIG_FIX4_ON,154,2026-02-01 17:58:17.531681,115.114291,1.732297,,,,,,keyboard,after digit#4,"{""note"":""after digit#4""}",1,0.016643,60.085935,1
Sergio_G01_CNS-LLF5HT7Y0,S01,OFFmed_OFFstim,20260201_175616,2026-02-01 17:56:22.367684,1,1,probe,POSTDIG_FIX4_OFF,159,2026-02-01 17:58:19.260108,116.846588,0.069370,,,,,,keyboard,after digit#4,"{""note"":""after digit#4"",""pd_used"":0}",1,0.016643,60.085935,1
Sergio_G01_CNS-LLF5HT7Y0,S01,OFFmed_OFFstim,20260201_175616,2026-02-01 17:56:22.367684,1,1,probe,DIGIT_RECALL_LINE_5,165,2026-02-01 17:58:19.329329,116.915958,1.041017,,5,,,,keyboard,next recall question,"{""value"":5,""note"":""next recall question"",""pd_used"":1}",1,0.016643,60.085935,1
Sergio_G01_CNS-LLF5HT7Y0,S01,OFFmed_OFFstim,20260201_175616,2026-02-01 17:56:22.367684,1,1,probe,PROBE_DIGIT_OK_5,71,2026-02-01 17:58:20.837490,117.956974,0.571101,14.380658,slot#5,NaN,,,keyboard,probe_digit#5,"{""value"":""slot#5"",""entered"":null,""rt"":14.380657899993821,""note"":""probe_digit#5""}",1,0.016643,60.085935,1
Sergio_G01_CNS-LLF5HT7Y0,S01,OFFmed_OFFstim,20260201_175616,2026-02-01 17:56:22.367684,1,1,probe,DIGIT5_OFF,150,2026-02-01 17:58:20.941045,118.528075,0.000000,,9,,,,keyboard,digit#5 off,"{""value"":9,""note"":""digit#5 off"",""pd_used"":0}",1,0.016643,60.085935,1
Sergio_G01_CNS-LLF5HT7Y0,S01,OFFmed_OFFstim,20260201_175616,2026-02-01 17:56:22.367684,1,1,probe,POSTDIG_FIX5_ON,155,2026-02-01 17:58:20.943065,118.528075,3.313214,,,,,,keyboard,after digit#5,"{""note"":""after digit#5""}",1,0.016643,60.085935,1
Sergio_G01_CNS-LLF5HT7Y0,S01,OFFmed_OFFstim,20260201_175616,2026-02-01 17:56:22.367684,1,1,probe,POSTDIG_FIX5_OFF,160,2026-02-01 17:58:24.254781,121.841290,0.054113,,,,,,keyboard,after digit#5,"{""note"":""after digit#5"",""pd_used"":0}",1,0.016643,60.085935,1
Sergio_G01_CNS-LLF5HT7Y0,S01,OFFmed_OFFstim,20260201_175616,2026-02-01 17:56:22.367684,1,1,probe,PROBE_DONE,73,2026-02-01 17:58:24.263979,121.895402,0.002878,,,,,,keyboard,probe complete,"{""value"":"""",""note"":""probe complete""}",1,0.016643,60.085935,1
Sergio_G01_CNS-LLF5HT7Y0,S01,OFFmed_OFFstim,20260201_175616,2026-02-01 17:56:22.367684,1,1,probe,TRIAL_END,21,2026-02-01 17:58:24.266615,121.898281,0.047072,,,,,,keyboard,,{},1,0.016643,60.085935,1
Sergio_G01_CNS-LLF5HT7Y0,S01,OFFmed_OFFstim,20260201_175616,2026-02-01 17:56:22.367684,1,1,probe,BLOCK_END,11,2026-02-01 17:58:24.313931,121.945353,0.318606,,,,,,keyboard,,{},1,0.016643,60.085935,1
Sergio_G01_CNS-LLF5HT7Y0,S01,OFFmed_OFFstim,20260201_175616,2026-02-01 17:56:22.367684,1,1,probe,SESSION_END,3,2026-02-01 17:58:24.632739,122.263960,NaN,,,,,,keyboard,,{},1,0.016643,60.085935,1
