file_version,subject,condition,session,task_start_time,block,trial,phase,event_name,event_code,wall_clock,t_rel_sec,duration_to_next,rt,value_shown,entered_value,correct,key_name,device,note,json,screen_index,ifi,refresh_hz,pd_used
Sergio_G01_CNS-LLF5HT7Y0,S01,OFFmed_OFFstim,20260202_185125,2026-02-02 18:51:42.137996,NaN,NaN,,MIC_NOISEFLOOR,6,2026-02-02 18:51:43.648929,1.510549,4.147510,,,,,,keyboard,,{},1,NaN,NaN,1
Sergio_G01_CNS-LLF5HT7Y0,S01,OFFmed_OFFstim,20260202_185125,2026-02-02 18:51:42.137996,NaN,NaN,,MIC_REC_SPEECH,7,2026-02-02 18:51:47.796562,5.658059,6.657716,,,,,,keyboard,,{},1,NaN,NaN,1
Sergio_G01_CNS-LLF5HT7Y0,S01,OFFmed_OFFstim,20260202_185125,2026-02-02 18:51:42.137996,NaN,NaN,,SESSION_START,1,2026-02-02 18:52:10.799418,28.659825,0.003129,,,,,,keyboard,,{},1,0.004181,239.179747,1
Sergio_G01_CNS-LLF5HT7Y0,S01,OFFmed_OFFstim,20260202_185125,2026-02-02 18:51:42.137996,1,NaN,,BLOCK_START,10,2026-02-02 18:52:10.801909,28.662954,0.055904,,,,,,keyboard,,{},1,0.004181,239.179747,1
Sergio_G01_CNS-LLF5HT7Y0,S01,OFFmed_OFFstim,20260202_185125,2026-02-02 18:51:42.137996,1,0,reading,START_PAGE_ON,4,2026-02-02 18:52:10.905603,28.718858,0.053947,,,,,,keyboard,,"{""pd_used"":0}",1,0.004181,239.179747,1
Sergio_G01_CNS-LLF5HT7Y0,S01,OFFmed_OFFstim,20260202_185125,2026-02-02 18:51:42.137996,1,0,reading,START_PAGE_ON,4,2026-02-02 18:52:10.905603,28.718858,3.755442,,,,,,keyboard,,"{""pd_used"":0}",1,0.004181,239.179747,1
Sergio_G01_CNS-LLF5HT7Y0,S01,OFFmed_OFFstim,20260202_185125,2026-02-02 18:51:42.137996,1,0,reading,START_PAGE_ON,4,2026-02-02 18:52:10.905603,28.718858,4.128089,,,,,,keyboard,,"{""pd_used"":0}",1,0.004181,239.179747,1
Sergio_G01_CNS-LLF5HT7Y0,S01,OFFmed_OFFstim,20260202_185125,2026-02-02 18:51:42.137996,1,0,reading,READING_START,23,2026-02-02 18:52:14.985939,32.846947,0.058552,,,,,,keyboard,,{},1,0.004181,239.179747,1
Sergio_G01_CNS-LLF5HT7Y0,S01,OFFmed_OFFstim,20260202_185125,2026-02-02 18:51:42.137996,1,0,reading,DIGIT_READ1_ON,101,2026-02-02 18:52:15.092540,32.905499,1.256251,,4,,,,keyboard,digit#1 shown,"{""value"":4,""note"":""digit#1 shown"",""pd_used"":1}",1,0.004181,239.179747,1
Sergio_G01_CNS-LLF5HT7Y0,S01,OFFmed_OFFstim,20260202_185125,2026-02-02 18:51:42.137996,1,0,reading,PROBE_COUNT_OK_1,71,2026-02-02 18:52:16.881828,34.161750,0.631632,5.448925,slot#1,NaN,,,keyboard,probe_digit#1,"{""value"":""slot#1"",""entered"":null,""rt"":5.4489249000034761,""note"":""probe_digit#1""}",1,0.004181,239.179747,1
Sergio_G01_CNS-LLF5HT7Y0,S01,OFFmed_OFFstim,20260202_185125,2026-02-02 18:51:42.137996,1,0,reading,DIGIT_READ1_OFF,116,2026-02-02 18:52:16.982857,34.793382,0.000000,,4,,,,keyboard,digit#1 off,"{""value"":4,""note"":""digit#1 off"",""pd_used"":0}",1,0.004181,239.179747,1
Sergio_G01_CNS-LLF5HT7Y0,S01,OFFmed_OFFstim,20260202_185125,2026-02-02 18:51:42.137996,1,0,reading,POSTREAD_FIX1_ON,201,2026-02-02 18:52:16.986207,34.793382,1.922353,,,,,,keyboard,after digit#1,"{""note"":""after digit#1""}",1,0.004181,239.179747,1
Sergio_G01_CNS-LLF5HT7Y0,S01,OFFmed_OFFstim,20260202_185125,2026-02-02 18:51:42.137996,1,0,reading,POSTREAD_FIX1_OFF,216,2026-02-02 18:52:18.898689,36.715736,0.051325,,,,,,keyboard,after digit#1,"{""note"":""after digit#1"",""pd_used"":0}",1,0.004181,239.179747,1
Sergio_G01_CNS-LLF5HT7Y0,S01,OFFmed_OFFstim,20260202_185125,2026-02-02 18:51:42.137996,1,0,reading,DIGIT_READ2_ON,102,2026-02-02 18:52:18.952261,36.767061,0.854999,,3,,,,keyboard,digit#2 shown,"{""value"":3,""note"":""digit#2 shown"",""pd_used"":1}",1,0.004181,239.179747,1
Sergio_G01_CNS-LLF5HT7Y0,S01,OFFmed_OFFstim,20260202_185125,2026-02-02 18:51:42.137996,1,0,reading,PROBE_COUNT_OK_2,71,2026-02-02 18:52:20.285518,37.622060,0.573907,8.909235,slot#2,NaN,,,keyboard,probe_digit#2,"{""value"":""slot#2"",""entered"":null,""rt"":8.9092349999991711,""note"":""probe_digit#2""}",1,0.004181,239.179747,1
Sergio_G01_CNS-LLF5HT7Y0,S01,OFFmed_OFFstim,20260202_185125,2026-02-02 18:51:42.137996,1,0,reading,DIGIT_READ2_OFF,117,2026-02-02 18:52:20.385248,38.195967,0.000000,,3,,,,keyboard,digit#2 off,"{""value"":3,""note"":""digit#2 off"",""pd_used"":0}",1,0.004181,239.179747,1
Sergio_G01_CNS-LLF5HT7Y0,S01,OFFmed_OFFstim,20260202_185125,2026-02-02 18:51:42.137996,1,0,reading,POSTREAD_FIX2_ON,202,2026-02-02 18:52:20.387659,38.195967,1.934853,,,,,,keyboard,after digit#2,"{""note"":""after digit#2""}",1,0.004181,239.179747,1
Sergio_G01_CNS-LLF5HT7Y0,S01,OFFmed_OFFstim,20260202_185125,2026-02-02 18:51:42.137996,1,0,reading,POSTREAD_FIX2_OFF,217,2026-02-02 18:52:22.313105,40.130820,0.055570,,,,,,keyboard,after digit#2,"{""note"":""after digit#2"",""pd_used"":0}",1,0.004181,239.179747,1
Sergio_G01_CNS-LLF5HT7Y0,S01,OFFmed_OFFstim,20260202_185125,2026-02-02 18:51:42.137996,1,0,reading,DIGIT_READ3_ON,103,2026-02-02 18:52:22.368843,40.186390,0.575218,,2,,,,keyboard,digit#3 shown,"{""value"":2,""note"":""digit#3 shown"",""pd_used"":1}",1,0.004181,239.179747,1
Sergio_G01_CNS-LLF5HT7Y0,S01,OFFmed_OFFstim,20260202_185125,2026-02-02 18:51:42.137996,1,0,reading,PROBE_COUNT_OK_3,71,2026-02-02 18:52:23.450878,40.761608,0.599241,12.048783,slot#3,NaN,,,keyboard,probe_digit#3,"{""value"":""slot#3"",""entered"":null,""rt"":12.048783000005642,""note"":""probe_digit#3""}",1,0.004181,239.179747,1
Sergio_G01_CNS-LLF5HT7Y0,S01,OFFmed_OFFstim,20260202_185125,2026-02-02 18:51:42.137996,1,0,reading,DIGIT_READ3_OFF,118,2026-02-02 18:52:23.549858,41.360849,0.000000,,2,,,,keyboard,digit#3 off,"{""value"":2,""note"":""digit#3 off"",""pd_used"":0}",1,0.004181,239.179747,1
Sergio_G01_CNS-LLF5HT7Y0,S01,OFFmed_OFFstim,20260202_185125,2026-02-02 18:51:42.137996,1,0,reading,POSTREAD_FIX3_ON,203,2026-02-02 18:52:23.552498,41.360849,1.961711,,,,,,keyboard,after digit#3,"{""note"":""after digit#3""}",1,0.004181,239.179747,1
Sergio_G01_CNS-LLF5HT7Y0,S01,OFFmed_OFFstim,20260202_185125,2026-02-02 18:51:42.137996,1,0,reading,POSTREAD_FIX3_OFF,218,2026-02-02 18:52:25.506405,43.322560,0.051820,,,,,,keyboard,after digit#3,"{""note"":""after digit#3"",""pd_used"":0}",1,0.004181,239.179747,1
Sergio_G01_CNS-LLF5HT7Y0,S01,OFFmed_OFFstim,20260202_185125,2026-02-02 18:51:42.137996,1,0,reading,DIGIT_READ4_ON,104,2026-02-02 18:52:25.559959,43.374380,0.561156,,2,,,,keyboard,digit#4 shown,"{""value"":2,""note"":""digit#4 shown"",""pd_used"":1}",1,0.004181,239.179747,1
Sergio_G01_CNS-LLF5HT7Y0,S01,OFFmed_OFFstim,20260202_185125,2026-02-02 18:51:42.137996,1,0,reading,PROBE_COUNT_OK_4,71,2026-02-02 18:52:26.590512,43.935535,0.570307,15.222711,slot#4,NaN,,,keyboard,probe_digit#4,"{""value"":""slot#4"",""entered"":null,""rt"":15.222710500005633,""note"":""probe_digit#4""}",1,0.004181,239.179747,1
Sergio_G01_CNS-LLF5HT7Y0,S01,OFFmed_OFFstim,20260202_185125,2026-02-02 18:51:42.137996,1,0,reading,DIGIT_READ4_OFF,119,2026-02-02 18:52:26.691907,44.505842,0.000000,,2,,,,keyboard,digit#4 off,"{""value"":2,""note"":""digit#4 off"",""pd_used"":0}",1,0.004181,239.179747,1
Sergio_G01_CNS-LLF5HT7Y0,S01,OFFmed_OFFstim,20260202_185125,2026-02-02 18:51:42.137996,1,0,reading,POSTREAD_FIX4_ON,204,2026-02-02 18:52:26.695616,44.505842,1.916265,,,,,,keyboard,after digit#4,"{""note"":""after digit#4""}",1,0.004181,239.179747,1
Sergio_G01_CNS-LLF5HT7Y0,S01,OFFmed_OFFstim,20260202_185125,2026-02-02 18:51:42.137996,1,0,reading,POSTREAD_FIX4_OFF,219,2026-02-02 18:52:28.605178,46.422107,0.054396,,,,,,keyboard,after digit#4,"{""note"":""after digit#4"",""pd_used"":0}",1,0.004181,239.179747,1
Sergio_G01_CNS-LLF5HT7Y0,S01,OFFmed_OFFstim,20260202_185125,2026-02-02 18:51:42.137996,1,0,reading,DIGIT_READ5_ON,105,2026-02-02 18:52:28.660312,46.476502,0.578602,,1,,,,keyboard,digit#5 shown,"{""value"":1,""note"":""digit#5 shown"",""pd_used"":1}",1,0.004181,239.179747,1
Sergio_G01_CNS-LLF5HT7Y0,S01,OFFmed_OFFstim,20260202_185125,2026-02-02 18:51:42.137996,1,0,reading,PROBE_COUNT_OK_5,71,2026-02-02 18:52:29.689685,47.055104,0.543966,18.342279,slot#5,NaN,,,keyboard,probe_digit#5,"{""value"":""slot#5"",""entered"":null,""rt"":18.342279200005578,""note"":""probe_digit#5""}",1,0.004181,239.179747,1
Sergio_G01_CNS-LLF5HT7Y0,S01,OFFmed_OFFstim,20260202_185125,2026-02-02 18:51:42.137996,1,0,reading,DIGIT_READ5_OFF,120,2026-02-02 18:52:29.788876,47.599070,0.000000,,1,,,,keyboard,digit#5 off,"{""value"":1,""note"":""digit#5 off"",""pd_used"":0}",1,0.004181,239.179747,1
Sergio_G01_CNS-LLF5HT7Y0,S01,OFFmed_OFFstim,20260202_185125,2026-02-02 18:51:42.137996,1,0,reading,POSTREAD_FIX5_ON,205,2026-02-02 18:52:29.791215,47.599070,2.048524,,,,,,keyboard,after digit#5,"{""note"":""after digit#5""}",1,0.004181,239.179747,1
Sergio_G01_CNS-LLF5HT7Y0,S01,OFFmed_OFFstim,20260202_185125,2026-02-02 18:51:42.137996,1,0,reading,POSTREAD_FIX5_OFF,220,2026-02-02 18:52:31.831157,49.647594,0.052868,,,,,,keyboard,after digit#5,"{""note"":""after digit#5"",""pd_used"":0}",1,0.004181,239.179747,1
Sergio_G01_CNS-LLF5HT7Y0,S01,OFFmed_OFFstim,20260202_185125,2026-02-02 18:51:42.137996,1,0,reading,DIGIT_READ6_ON,106,2026-02-02 18:52:31.883702,49.700461,0.497452,,2,,,,keyboard,digit#6 shown,"{""value"":2,""note"":""digit#6 shown"",""pd_used"":1}",1,0.004181,239.179747,1
Sergio_G01_CNS-LLF5HT7Y0,S01,OFFmed_OFFstim,20260202_185125,2026-02-02 18:51:42.137996,1,0,reading,PROBE_COUNT_OK_6,71,2026-02-02 18:52:32.939817,50.197913,0.649143,21.485088,slot#6,NaN,,,keyboard,probe_digit#6,"{""value"":""slot#6"",""entered"":null,""rt"":21.4850878000143,""note"":""probe_digit#6""}",1,0.004181,239.179747,1
Sergio_G01_CNS-LLF5HT7Y0,S01,OFFmed_OFFstim,20260202_185125,2026-02-02 18:51:42.137996,1,0,reading,DIGIT_READ6_OFF,121,2026-02-02 18:52:33.035578,50.847056,0.000000,,2,,,,keyboard,digit#6 off,"{""value"":2,""note"":""digit#6 off"",""pd_used"":0}",1,0.004181,239.179747,1
Sergio_G01_CNS-LLF5HT7Y0,S01,OFFmed_OFFstim,20260202_185125,2026-02-02 18:51:42.137996,1,0,reading,POSTREAD_FIX6_ON,206,2026-02-02 18:52:33.036625,50.847056,1.772214,,,,,,keyboard,after digit#6,"{""note"":""after digit#6""}",1,0.004181,239.179747,1
Sergio_G01_CNS-LLF5HT7Y0,S01,OFFmed_OFFstim,20260202_185125,2026-02-02 18:51:42.137996,1,0,reading,POSTREAD_FIX6_OFF,221,2026-02-02 18:52:34.801893,52.619270,0.051038,,,,,,keyboard,after digit#6,"{""note"":""after digit#6"",""pd_used"":0}",1,0.004181,239.179747,1
Sergio_G01_CNS-LLF5HT7Y0,S01,OFFmed_OFFstim,20260202_185125,2026-02-02 18:51:42.137996,1,0,reading,DIGIT_READ7_ON,107,2026-02-02 18:52:34.855105,52.670308,0.624188,,4,,,,keyboard,digit#7 shown,"{""value"":4,""note"":""digit#7 shown"",""pd_used"":1}",1,0.004181,239.179747,1
Sergio_G01_CNS-LLF5HT7Y0,S01,OFFmed_OFFstim,20260202_185125,2026-02-02 18:51:42.137996,1,0,reading,PROBE_COUNT_OK_7,71,2026-02-02 18:52:36.047158,53.294495,0.663490,24.581671,slot#7,NaN,,,keyboard,probe_digit#7,"{""value"":""slot#7"",""entered"":null,""rt"":24.581670500017935,""note"":""probe_digit#7""}",1,0.004181,239.179747,1
Sergio_G01_CNS-LLF5HT7Y0,S01,OFFmed_OFFstim,20260202_185125,2026-02-02 18:51:42.137996,1,0,reading,DIGIT_READ7_OFF,122,2026-02-02 18:52:36.146634,53.957985,0.000000,,4,,,,keyboard,digit#7 off,"{""value"":4,""note"":""digit#7 off"",""pd_used"":0}",1,0.004181,239.179747,1
Sergio_G01_CNS-LLF5HT7Y0,S01,OFFmed_OFFstim,20260202_185125,2026-02-02 18:51:42.137996,1,0,reading,POSTREAD_FIX7_ON,207,2026-02-02 18:52:36.148812,53.957985,2.015603,,,,,,keyboard,after digit#7,"{""note"":""after digit#7""}",1,0.004181,239.179747,1
Sergio_G01_CNS-LLF5HT7Y0,S01,OFFmed_OFFstim,20260202_185125,2026-02-02 18:51:42.137996,1,0,reading,POSTREAD_FIX7_OFF,222,2026-02-02 18:52:38.156687,55.973588,0.051489,,,,,,keyboard,after digit#7,"{""note"":""after digit#7"",""pd_used"":0}",1,0.004181,239.179747,1
Sergio_G01_CNS-LLF5HT7Y0,S01,OFFmed_OFFstim,20260202_185125,2026-02-02 18:51:42.137996,1,0,reading,DIGIT_READ8_ON,108,2026-02-02 18:52:38.209570,56.025078,0.564945,,3,,,,keyboard,digit#8 shown,"{""value"":3,""note"":""digit#8 shown"",""pd_used"":1}",1,0.004181,239.179747,1
Sergio_G01_CNS-LLF5HT7Y0,S01,OFFmed_OFFstim,20260202_185125,2026-02-02 18:51:42.137996,1,0,reading,PROBE_COUNT_OK_8,71,2026-02-02 18:52:39.309153,56.590022,0.630136,27.877197,slot#8,NaN,,,keyboard,probe_digit#8,"{""value"":""slot#8"",""entered"":null,""rt"":27.877197499998147,""note"":""probe_digit#8""}",1,0.004181,239.179747,1
Sergio_G01_CNS-LLF5HT7Y0,S01,OFFmed_OFFstim,20260202_185125,2026-02-02 18:51:42.137996,1,0,reading,DIGIT_READ8_OFF,123,2026-02-02 18:52:39.407721,57.220158,0.000000,,3,,,,keyboard,digit#8 off,"{""value"":3,""note"":""digit#8 off"",""pd_used"":0}",1,0.004181,239.179747,1
Sergio_G01_CNS-LLF5HT7Y0,S01,OFFmed_OFFstim,20260202_185125,2026-02-02 18:51:42.137996,1,0,reading,POSTREAD_FIX8_ON,208,2026-02-02 18:52:39.409898,57.220158,1.567086,,,,,,keyboard,after digit#8,"{""note"":""after digit#8""}",1,0.004181,239.179747,1
Sergio_G01_CNS-LLF5HT7Y0,S01,OFFmed_OFFstim,20260202_185125,2026-02-02 18:51:42.137996,1,0,reading,POSTREAD_FIX8_OFF,223,2026-02-02 18:52:40.971118,58.787244,0.052580,,,,,,keyboard,after digit#8,"{""note"":""after digit#8"",""pd_used"":0}",1,0.004181,239.179747,1
Sergio_G01_CNS-LLF5HT7Y0,S01,OFFmed_OFFstim,20260202_185125,2026-02-02 18:51:42.137996,1,0,reading,DIGIT_READ9_ON,109,2026-02-02 18:52:41.025328,58.839825,0.613802,,3,,,,keyboard,digit#9 shown,"{""value"":3,""note"":""digit#9 shown"",""pd_used"":1}",1,0.004181,239.179747,1
Sergio_G01_CNS-LLF5HT7Y0,S01,OFFmed_OFFstim,20260202_185125,2026-02-02 18:51:42.137996,1,0,reading,PROBE_COUNT_OK_9,71,2026-02-02 18:52:42.167675,59.453627,0.622270,30.740802,slot#9,NaN,,,keyboard,probe_digit#9,"{""value"":""slot#9"",""entered"":null,""rt"":30.740801700012526,""note"":""probe_digit#9""}",1,0.004181,239.179747,1
Sergio_G01_CNS-LLF5HT7Y0,S01,OFFmed_OFFstim,20260202_185125,2026-02-02 18:51:42.137996,1,0,reading,DIGIT_READ9_OFF,124,2026-02-02 18:52:42.265768,60.075896,0.000000,,3,,,,keyboard,digit#9 off,"{""value"":3,""note"":""digit#9 off"",""pd_used"":0}",1,0.004181,239.179747,1
Sergio_G01_CNS-LLF5HT7Y0,S01,OFFmed_OFFstim,20260202_185125,2026-02-02 18:51:42.137996,1,0,reading,POSTREAD_FIX9_ON,209,2026-02-02 18:52:42.268284,60.075896,2.033394,,,,,,keyboard,after digit#9,"{""note"":""after digit#9""}",1,0.004181,239.179747,1
Sergio_G01_CNS-LLF5HT7Y0,S01,OFFmed_OFFstim,20260202_185125,2026-02-02 18:51:42.137996,1,0,reading,POSTREAD_FIX9_OFF,224,2026-02-02 18:52:44.292113,62.109290,0.050996,,,,,,keyboard,after digit#9,"{""note"":""after digit#9"",""pd_used"":0}",1,0.004181,239.179747,1
Sergio_G01_CNS-LLF5HT7Y0,S01,OFFmed_OFFstim,20260202_185125,2026-02-02 18:51:42.137996,1,0,reading,DIGIT_READ10_ON,110,2026-02-02 18:52:44.344496,62.160286,0.530513,,9,,,,keyboard,digit#10 shown,"{""value"":9,""note"":""digit#10 shown"",""pd_used"":1}",1,0.004181,239.179747,1
Sergio_G01_CNS-LLF5HT7Y0,S01,OFFmed_OFFstim,20260202_185125,2026-02-02 18:51:42.137996,1,0,reading,PROBE_COUNT_OK_10,71,2026-02-02 18:52:45.496068,62.690799,0.716171,33.977974,slot#10,NaN,,,keyboard,probe_digit#10,"{""value"":""slot#10"",""entered"":null,""rt"":33.97797370000626,""note"":""probe_digit#10""}",1,0.004181,239.179747,1
Sergio_G01_CNS-LLF5HT7Y0,S01,OFFmed_OFFstim,20260202_185125,2026-02-02 18:51:42.137996,1,0,reading,DIGIT_READ10_OFF,125,2026-02-02 18:52:45.595643,63.406969,0.000000,,9,,,,keyboard,digit#10 off,"{""value"":9,""note"":""digit#10 off"",""pd_used"":0}",1,0.004181,239.179747,1
Sergio_G01_CNS-LLF5HT7Y0,S01,OFFmed_OFFstim,20260202_185125,2026-02-02 18:51:42.137996,1,0,reading,POSTREAD_FIX10_ON,210,2026-02-02 18:52:45.598298,63.406969,3.432251,,,,,,keyboard,after digit#10,"{""note"":""after digit#10""}",1,0.004181,239.179747,1
Sergio_G01_CNS-LLF5HT7Y0,S01,OFFmed_OFFstim,20260202_185125,2026-02-02 18:51:42.137996,1,0,reading,POSTREAD_FIX10_OFF,225,2026-02-02 18:52:49.022165,66.839221,0.052928,,,,,,keyboard,after digit#10,"{""note"":""after digit#10"",""pd_used"":0}",1,0.004181,239.179747,1
Sergio_G01_CNS-LLF5HT7Y0,S01,OFFmed_OFFstim,20260202_185125,2026-02-02 18:51:42.137996,1,0,reading,DIGIT_READ11_ON,111,2026-02-02 18:52:49.075310,66.892148,0.579685,,3,,,,keyboard,digit#11 shown,"{""value"":3,""note"":""digit#11 shown"",""pd_used"":1}",1,0.004181,239.179747,1
Sergio_G01_CNS-LLF5HT7Y0,S01,OFFmed_OFFstim,20260202_185125,2026-02-02 18:51:42.137996,1,0,reading,PROBE_COUNT_OK_11,71,2026-02-02 18:52:50.209247,67.471834,0.648664,38.759009,slot#11,NaN,,,keyboard,probe_digit#11,"{""value"":""slot#11"",""entered"":null,""rt"":38.759008799999719,""note"":""probe_digit#11""}",1,0.004181,239.179747,1
Sergio_G01_CNS-LLF5HT7Y0,S01,OFFmed_OFFstim,20260202_185125,2026-02-02 18:51:42.137996,1,0,reading,DIGIT_READ11_OFF,126,2026-02-02 18:52:50.308936,68.120498,0.000000,,3,,,,keyboard,digit#11 off,"{""value"":3,""note"":""digit#11 off"",""pd_used"":0}",1,0.004181,239.179747,1
Sergio_G01_CNS-LLF5HT7Y0,S01,OFFmed_OFFstim,20260202_185125,2026-02-02 18:51:42.137996,1,0,reading,POSTREAD_FIX11_ON,211,2026-02-02 18:52:50.311716,68.120498,3.355237,,,,,,keyboard,after digit#11,"{""note"":""after digit#11""}",1,0.004181,239.179747,1
Sergio_G01_CNS-LLF5HT7Y0,S01,OFFmed_OFFstim,20260202_185125,2026-02-02 18:51:42.137996,1,0,reading,POSTREAD_FIX11_OFF,226,2026-02-02 18:52:53.660554,71.475735,0.055028,,,,,,keyboard,after digit#11,"{""note"":""after digit#11"",""pd_used"":0}",1,0.004181,239.179747,1
Sergio_G01_CNS-LLF5HT7Y0,S01,OFFmed_OFFstim,20260202_185125,2026-02-02 18:51:42.137996,1,0,reading,DIGIT_READ12_ON,112,2026-02-02 18:52:53.717571,71.530763,0.457668,,6,,,,keyboard,digit#12 shown,"{""value"":6,""note"":""digit#12 shown"",""pd_used"":1}",1,0.004181,239.179747,1
Sergio_G01_CNS-LLF5HT7Y0,S01,OFFmed_OFFstim,20260202_185125,2026-02-02 18:51:42.137996,1,0,reading,PROBE_COUNT_OK_12,71,2026-02-02 18:52:54.638524,71.988431,0.558579,43.275606,slot#12,NaN,,,keyboard,probe_digit#12,"{""value"":""slot#12"",""entered"":null,""rt"":43.275606300012441,""note"":""probe_digit#12""}",1,0.004181,239.179747,1
Sergio_G01_CNS-LLF5HT7Y0,S01,OFFmed_OFFstim,20260202_185125,2026-02-02 18:51:42.137996,1,0,reading,DIGIT_READ12_OFF,127,2026-02-02 18:52:54.737440,72.547010,0.000000,,6,,,,keyboard,digit#12 off,"{""value"":6,""note"":""digit#12 off"",""pd_used"":0}",1,0.004181,239.179747,1
Sergio_G01_CNS-LLF5HT7Y0,S01,OFFmed_OFFstim,20260202_185125,2026-02-02 18:51:42.137996,1,0,reading,POSTREAD_FIX12_ON,212,2026-02-02 18:52:54.739814,72.547010,3.500445,,,,,,keyboard,after digit#12,"{""note"":""after digit#12""}",1,0.004181,239.179747,1
Sergio_G01_CNS-LLF5HT7Y0,S01,OFFmed_OFFstim,20260202_185125,2026-02-02 18:51:42.137996,1,0,reading,POSTREAD_FIX12_OFF,227,2026-02-02 18:52:58.230057,76.047455,0.050871,,,,,,keyboard,after digit#12,"{""note"":""after digit#12"",""pd_used"":0}",1,0.004181,239.179747,1
Sergio_G01_CNS-LLF5HT7Y0,S01,OFFmed_OFFstim,20260202_185125,2026-02-02 18:51:42.137996,1,0,reading,DIGIT_READ13_ON,113,2026-02-02 18:52:58.281369,76.098326,0.622150,,0,,,,keyboard,digit#13 shown,"{""value"":0,""note"":""digit#13 shown"",""pd_used"":1}",1,0.004181,239.179747,1
Sergio_G01_CNS-LLF5HT7Y0,S01,OFFmed_OFFstim,20260202_185125,2026-02-02 18:51:42.137996,1,0,reading,PROBE_COUNT_OK_13,71,2026-02-02 18:52:59.475917,76.720476,0.671399,48.007651,slot#13,NaN,,,keyboard,probe_digit#13,"{""value"":""slot#13"",""entered"":null,""rt"":48.007651300024008,""note"":""probe_digit#13""}",1,0.004181,239.179747,1
Sergio_G01_CNS-LLF5HT7Y0,S01,OFFmed_OFFstim,20260202_185125,2026-02-02 18:51:42.137996,1,0,reading,DIGIT_READ13_OFF,128,2026-02-02 18:52:59.579560,77.391875,0.000000,,0,,,,keyboard,digit#13 off,"{""value"":0,""note"":""digit#13 off"",""pd_used"":0}",1,0.004181,239.179747,1
Sergio_G01_CNS-LLF5HT7Y0,S01,OFFmed_OFFstim,20260202_185125,2026-02-02 18:51:42.137996,1,0,reading,POSTREAD_FIX13_ON,213,2026-02-02 18:52:59.581451,77.391875,3.113713,,,,,,keyboard,after digit#13,"{""note"":""after digit#13""}",1,0.004181,239.179747,1
Sergio_G01_CNS-LLF5HT7Y0,S01,OFFmed_OFFstim,20260202_185125,2026-02-02 18:51:42.137996,1,0,reading,POSTREAD_FIX13_OFF,228,2026-02-02 18:53:02.688504,80.505588,0.054434,,,,,,keyboard,after digit#13,"{""note"":""after digit#13"",""pd_used"":0}",1,0.004181,239.179747,1
Sergio_G01_CNS-LLF5HT7Y0,S01,OFFmed_OFFstim,20260202_185125,2026-02-02 18:51:42.137996,1,0,reading,DIGIT_READ14_ON,114,2026-02-02 18:53:02.742331,80.560022,0.436205,,7,,,,keyboard,digit#14 shown,"{""value"":7,""note"":""digit#14 shown"",""pd_used"":1}",1,0.004181,239.179747,1
Sergio_G01_CNS-LLF5HT7Y0,S01,OFFmed_OFFstim,20260202_185125,2026-02-02 18:51:42.137996,1,0,reading,PROBE_COUNT_OK_14,71,2026-02-02 18:53:03.753092,80.996227,0.668082,52.283402,slot#14,NaN,,,keyboard,probe_digit#14,"{""value"":""slot#14"",""entered"":null,""rt"":52.28340179999941,""note"":""probe_digit#14""}",1,0.004181,239.179747,1
Sergio_G01_CNS-LLF5HT7Y0,S01,OFFmed_OFFstim,20260202_185125,2026-02-02 18:51:42.137996,1,0,reading,DIGIT_READ14_OFF,129,2026-02-02 18:53:03.852930,81.664309,0.000000,,7,,,,keyboard,digit#14 off,"{""value"":7,""note"":""digit#14 off"",""pd_used"":0}",1,0.004181,239.179747,1
Sergio_G01_CNS-LLF5HT7Y0,S01,OFFmed_OFFstim,20260202_185125,2026-02-02 18:51:42.137996,1,0,reading,POSTREAD_FIX14_ON,214,2026-02-02 18:53:03.855215,81.664309,3.257294,,,,,,keyboard,after digit#14,"{""note"":""after digit#14""}",1,0.004181,239.179747,1
Sergio_G01_CNS-LLF5HT7Y0,S01,OFFmed_OFFstim,20260202_185125,2026-02-02 18:51:42.137996,1,0,reading,POSTREAD_FIX14_OFF,229,2026-02-02 18:53:07.104084,84.921603,0.050403,,,,,,keyboard,after digit#14,"{""note"":""after digit#14"",""pd_used"":0}",1,0.004181,239.179747,1
Sergio_G01_CNS-LLF5HT7Y0,S01,OFFmed_OFFstim,20260202_185125,2026-02-02 18:51:42.137996,1,0,reading,DIGIT_READ15_ON,115,2026-02-02 18:53:07.158370,84.972006,0.516583,,9,,,,keyboard,digit#15 shown,"{""value"":9,""note"":""digit#15 shown"",""pd_used"":1}",1,0.004181,239.179747,1
Sergio_G01_CNS-LLF5HT7Y0,S01,OFFmed_OFFstim,20260202_185125,2026-02-02 18:51:42.137996,1,0,reading,PROBE_COUNT_OK_15,71,2026-02-02 18:53:08.150591,85.488590,0.574014,56.775765,slot#15,NaN,,,keyboard,probe_digit#15,"{""value"":""slot#15"",""entered"":null,""rt"":56.775764899997739,""note"":""probe_digit#15""}",1,0.004181,239.179747,1
Sergio_G01_CNS-LLF5HT7Y0,S01,OFFmed_OFFstim,20260202_185125,2026-02-02 18:51:42.137996,1,0,reading,DIGIT_READ15_OFF,130,2026-02-02 18:53:08.251116,86.062604,0.000000,,9,,,,keyboard,digit#15 off,"{""value"":9,""note"":""digit#15 off"",""pd_used"":0}",1,0.004181,239.179747,1
Sergio_G01_CNS-LLF5HT7Y0,S01,OFFmed_OFFstim,20260202_185125,2026-02-02 18:51:42.137996,1,0,reading,POSTREAD_FIX15_ON,215,2026-02-02 18:53:08.253494,86.062604,3.172031,,,,,,keyboard,after digit#15,"{""note"":""after digit#15""}",1,0.004181,239.179747,1
Sergio_G01_CNS-LLF5HT7Y0,S01,OFFmed_OFFstim,20260202_185125,2026-02-02 18:51:42.137996,1,0,reading,POSTREAD_FIX15_OFF,230,2026-02-02 18:53:11.418162,89.234635,0.050126,,,,,,keyboard,after digit#15,"{""note"":""after digit#15"",""pd_used"":0}",1,0.004181,239.179747,1
Sergio_G01_CNS-LLF5HT7Y0,S01,OFFmed_OFFstim,20260202_185125,2026-02-02 18:51:42.137996,1,0,reading,READING_END,24,2026-02-02 18:53:11.423336,89.284761,0.052302,,,,,,keyboard,,{},1,0.004181,239.179747,1
Sergio_G01_CNS-LLF5HT7Y0,S01,OFFmed_OFFstim,20260202_185125,2026-02-02 18:51:42.137996,1,0,reading,START_PAGE_ON,4,2026-02-02 18:53:11.524636,89.337064,0.057760,,,,,,keyboard,,"{""pd_used"":0}",1,0.004181,239.179747,1
Sergio_G01_CNS-LLF5HT7Y0,S01,OFFmed_OFFstim,20260202_185125,2026-02-02 18:51:42.137996,1,0,reading,START_PAGE_ON,4,2026-02-02 18:53:11.524636,89.337064,1.161401,,,,,,keyboard,,"{""pd_used"":0}",1,0.004181,239.179747,1
Sergio_G01_CNS-LLF5HT7Y0,S01,OFFmed_OFFstim,20260202_185125,2026-02-02 18:51:42.137996,1,0,reading,START_PAGE_ON,4,2026-02-02 18:53:11.524636,89.337064,1.534702,,,,,,keyboard,,"{""pd_used"":0}",1,0.004181,239.179747,1
Sergio_G01_CNS-LLF5HT7Y0,S01,OFFmed_OFFstim,20260202_185125,2026-02-02 18:51:42.137996,1,1,reading,TRIAL_CHANGE,22,2026-02-02 18:53:13.010408,90.871766,0.001959,,,,,,keyboard,trial transition,"{""note"":""trial transition""}",1,0.004181,239.179747,1
Sergio_G01_CNS-LLF5HT7Y0,S01,OFFmed_OFFstim,20260202_185125,2026-02-02 18:51:42.137996,1,1,reading,TRIAL_START,20,2026-02-02 18:53:13.012136,90.873725,0.056698,,,,,,keyboard,,{},1,0.004181,239.179747,1
Sergio_G01_CNS-LLF5HT7Y0,S01,OFFmed_OFFstim,20260202_185125,2026-02-02 18:51:42.137996,1,1,fix1,FIX1_ON,30,2026-02-02 18:53:13.119077,90.930423,3.115285,,,,,,keyboard,,"{""pd_used"":0}",1,0.004181,239.179747,1
Sergio_G01_CNS-LLF5HT7Y0,S01,OFFmed_OFFstim,20260202_185125,2026-02-02 18:51:42.137996,1,1,fix1,FIX1_OFF,31,2026-02-02 18:53:16.229899,94.045708,0.050972,,,,,,keyboard,,"{""pd_used"":0}",1,0.004181,239.179747,1
Sergio_G01_CNS-LLF5HT7Y0,S01,OFFmed_OFFstim,20260202_185125,2026-02-02 18:51:42.137996,1,1,digit,DIGIT1_ON,141,2026-02-02 18:53:16.283607,94.096680,0.555855,,9,,,,keyboard,digit#1 shown,"{""value"":9,""note"":""digit#1 shown"",""pd_used"":1}",1,0.004181,239.179747,1
Sergio_G01_CNS-LLF5HT7Y0,S01,OFFmed_OFFstim,20260202_185125,2026-02-02 18:51:42.137996,1,1,digit,DIGIT1_OFF,146,2026-02-02 18:53:16.836362,94.652535,0.000000,,9,,,,keyboard,digit#1 off,"{""value"":9,""note"":""digit#1 off"",""pd_used"":0}",1,0.004181,239.179747,1
Sergio_G01_CNS-LLF5HT7Y0,S01,OFFmed_OFFstim,20260202_185125,2026-02-02 18:51:42.137996,1,1,digit,POSTDIG_FIX1_ON,151,2026-02-02 18:53:16.839076,94.652535,1.822639,,,,,,keyboard,after digit#1,"{""note"":""after digit#1""}",1,0.004181,239.179747,1
Sergio_G01_CNS-LLF5HT7Y0,S01,OFFmed_OFFstim,20260202_185125,2026-02-02 18:51:42.137996,1,1,digit,POSTDIG_FIX1_OFF,156,2026-02-02 18:53:18.659474,96.475174,0.050777,,,,,,keyboard,after digit#1,"{""note"":""after digit#1"",""pd_used"":0}",1,0.004181,239.179747,1
Sergio_G01_CNS-LLF5HT7Y0,S01,OFFmed_OFFstim,20260202_185125,2026-02-02 18:51:42.137996,1,1,digit,DIGIT2_ON,142,2026-02-02 18:53:18.713148,96.525952,0.556030,,3,,,,keyboard,digit#2 shown,"{""value"":3,""note"":""digit#2 shown"",""pd_used"":1}",1,0.004181,239.179747,1
Sergio_G01_CNS-LLF5HT7Y0,S01,OFFmed_OFFstim,20260202_185125,2026-02-02 18:51:42.137996,1,1,digit,DIGIT2_OFF,147,2026-02-02 18:53:19.265185,97.081982,0.000000,,3,,,,keyboard,digit#2 off,"{""value"":3,""note"":""digit#2 off"",""pd_used"":0}",1,0.004181,239.179747,1
Sergio_G01_CNS-LLF5HT7Y0,S01,OFFmed_OFFstim,20260202_185125,2026-02-02 18:51:42.137996,1,1,digit,POSTDIG_FIX2_ON,152,2026-02-02 18:53:19.267344,97.081982,1.868778,,,,,,keyboard,after digit#2,"{""note"":""after digit#2""}",1,0.004181,239.179747,1
Sergio_G01_CNS-LLF5HT7Y0,S01,OFFmed_OFFstim,20260202_185125,2026-02-02 18:51:42.137996,1,1,digit,POSTDIG_FIX2_OFF,157,2026-02-02 18:53:21.134660,98.950760,0.051848,,,,,,keyboard,after digit#2,"{""note"":""after digit#2"",""pd_used"":0}",1,0.004181,239.179747,1
Sergio_G01_CNS-LLF5HT7Y0,S01,OFFmed_OFFstim,20260202_185125,2026-02-02 18:51:42.137996,1,1,digit,DIGIT3_ON,143,2026-02-02 18:53:21.187658,99.002608,0.553388,,6,,,,keyboard,digit#3 shown,"{""value"":6,""note"":""digit#3 shown"",""pd_used"":1}",1,0.004181,239.179747,1
Sergio_G01_CNS-LLF5HT7Y0,S01,OFFmed_OFFstim,20260202_185125,2026-02-02 18:51:42.137996,1,1,digit,DIGIT3_OFF,148,2026-02-02 18:53:21.740155,99.555995,0.000000,,6,,,,keyboard,digit#3 off,"{""value"":6,""note"":""digit#3 off"",""pd_used"":0}",1,0.004181,239.179747,1
Sergio_G01_CNS-LLF5HT7Y0,S01,OFFmed_OFFstim,20260202_185125,2026-02-02 18:51:42.137996,1,1,digit,POSTDIG_FIX3_ON,153,2026-02-02 18:53:21.742809,99.555995,1.820807,,,,,,keyboard,after digit#3,"{""note"":""after digit#3""}",1,0.004181,239.179747,1
Sergio_G01_CNS-LLF5HT7Y0,S01,OFFmed_OFFstim,20260202_185125,2026-02-02 18:51:42.137996,1,1,digit,POSTDIG_FIX3_OFF,158,2026-02-02 18:53:23.558606,101.376802,0.048391,,,,,,keyboard,after digit#3,"{""note"":""after digit#3"",""pd_used"":0}",1,0.004181,239.179747,1
Sergio_G01_CNS-LLF5HT7Y0,S01,OFFmed_OFFstim,20260202_185125,2026-02-02 18:51:42.137996,1,1,digit,DIGIT4_ON,144,2026-02-02 18:53:23.611146,101.425194,0.554288,,8,,,,keyboard,digit#4 shown,"{""value"":8,""note"":""digit#4 shown"",""pd_used"":1}",1,0.004181,239.179747,1
Sergio_G01_CNS-LLF5HT7Y0,S01,OFFmed_OFFstim,20260202_185125,2026-02-02 18:51:42.137996,1,1,digit,DIGIT4_OFF,149,2026-02-02 18:53:24.163153,101.979482,0.000000,,8,,,,keyboard,digit#4 off,"{""value"":8,""note"":""digit#4 off"",""pd_used"":0}",1,0.004181,239.179747,1
Sergio_G01_CNS-LLF5HT7Y0,S01,OFFmed_OFFstim,20260202_185125,2026-02-02 18:51:42.137996,1,1,digit,POSTDIG_FIX4_ON,154,2026-02-02 18:53:24.165771,101.979482,1.872640,,,,,,keyboard,after digit#4,"{""note"":""after digit#4""}",1,0.004181,239.179747,1
Sergio_G01_CNS-LLF5HT7Y0,S01,OFFmed_OFFstim,20260202_185125,2026-02-02 18:51:42.137996,1,1,digit,POSTDIG_FIX4_OFF,159,2026-02-02 18:53:26.033285,103.852121,0.048345,,,,,,keyboard,after digit#4,"{""note"":""after digit#4"",""pd_used"":0}",1,0.004181,239.179747,1
Sergio_G01_CNS-LLF5HT7Y0,S01,OFFmed_OFFstim,20260202_185125,2026-02-02 18:51:42.137996,1,1,digit,DIGIT5_ON,145,2026-02-02 18:53:26.085645,103.900467,0.555979,,8,,,,keyboard,digit#5 shown,"{""value"":8,""note"":""digit#5 shown"",""pd_used"":1}",1,0.004181,239.179747,1
Sergio_G01_CNS-LLF5HT7Y0,S01,OFFmed_OFFstim,20260202_185125,2026-02-02 18:51:42.137996,1,1,digit,DIGIT5_OFF,150,2026-02-02 18:53:26.639429,104.456445,0.000000,,8,,,,keyboard,digit#5 off,"{""value"":8,""note"":""digit#5 off"",""pd_used"":0}",1,0.004181,239.179747,1
Sergio_G01_CNS-LLF5HT7Y0,S01,OFFmed_OFFstim,20260202_185125,2026-02-02 18:51:42.137996,1,1,digit,POSTDIG_FIX5_ON,155,2026-02-02 18:53:26.642835,104.456445,3.087232,,,,,,keyboard,after digit#5,"{""note"":""after digit#5""}",1,0.004181,239.179747,1
Sergio_G01_CNS-LLF5HT7Y0,S01,OFFmed_OFFstim,20260202_185125,2026-02-02 18:51:42.137996,1,1,digit,POSTDIG_FIX5_OFF,160,2026-02-02 18:53:29.726866,107.543678,0.056409,,,,,,keyboard,after digit#5,"{""note"":""after digit#5"",""pd_used"":0}",1,0.004181,239.179747,1
Sergio_G01_CNS-LLF5HT7Y0,S01,OFFmed_OFFstim,20260202_185125,2026-02-02 18:51:42.137996,1,1,distractor,DISTRACTOR_ON,50,2026-02-02 18:53:29.781892,107.600087,1.701269,,1+9=10,,,,keyboard,,"{""value"":""1+9=10"",""isCorrectTruth"":true,""trueSum"":10,""pd_used"":1}",1,0.004181,239.179747,1
Sergio_G01_CNS-LLF5HT7Y0,S01,OFFmed_OFFstim,20260202_185125,2026-02-02 18:51:42.137996,1,1,distractor,DISTRACTOR_ANS,51,2026-02-02 18:53:31.920655,109.301356,0.000000,1.701269,1+9=10,F,0,,keyboard,key= (False),"{""value"":""1+9=10"",""entered"":""F"",""rt"":1.7012687000096776,""correct"":0,""note"":""key= (False)"",""truth"":true,""trueSum"":10,""shownSum"":10,""a"":1,""b"":9}",1,0.004181,239.179747,1
Sergio_G01_CNS-LLF5HT7Y0,S01,OFFmed_OFFstim,20260202_185125,2026-02-02 18:51:42.137996,1,1,distractor,ANS_WRONG,200,2026-02-02 18:53:31.969127,109.301356,0.535460,,,,,,keyboard,,{},1,0.004181,239.179747,1
Sergio_G01_CNS-LLF5HT7Y0,S01,OFFmed_OFFstim,20260202_185125,2026-02-02 18:51:42.137996,1,1,distractor,DISTRACTOR_OFF,52,2026-02-02 18:53:32.021503,109.836816,0.000000,,,,,,keyboard,,"{""pd_used"":0}",1,0.004181,239.179747,1
Sergio_G01_CNS-LLF5HT7Y0,S01,OFFmed_OFFstim,20260202_185125,2026-02-02 18:51:42.137996,1,1,distractor,FIX2_ON,60,2026-02-02 18:53:32.023998,109.836816,3.335827,,,,,,keyboard,immediate after response,"{""note"":""immediate after response""}",1,0.004181,239.179747,1
Sergio_G01_CNS-LLF5HT7Y0,S01,OFFmed_OFFstim,20260202_185125,2026-02-02 18:51:42.137996,1,1,fix2,FIX2_OFF,61,2026-02-02 18:53:35.356438,113.172644,0.054022,,,,,,keyboard,,"{""pd_used"":0}",1,0.004181,239.179747,1
Sergio_G01_CNS-LLF5HT7Y0,S01,OFFmed_OFFstim,20260202_185125,2026-02-02 18:51:42.137996,1,1,probe,DIGIT_RECALL_LINE_1,161,2026-02-02 18:53:35.408759,113.226666,0.531286,,1,,,,keyboard,first recall question,"{""value"":1,""note"":""first recall question"",""pd_used"":1}",1,0.004181,239.179747,1
Sergio_G01_CNS-LLF5HT7Y0,S01,OFFmed_OFFstim,20260202_185125,2026-02-02 18:51:42.137996,1,1,probe,PROBE_DIGIT_OK_1,71,2026-02-02 18:53:36.398488,113.757952,0.550781,0.537622,slot#1,NaN,,,keyboard,probe_digit#1,"{""value"":""slot#1"",""entered"":null,""rt"":0.53762210000422783,""note"":""probe_digit#1""}",1,0.004181,239.179747,1
Sergio_G01_CNS-LLF5HT7Y0,S01,OFFmed_OFFstim,20260202_185125,2026-02-02 18:51:42.137996,1,1,probe,DIGIT1_OFF,146,2026-02-02 18:53:36.498591,114.308733,0.000000,,8,,,,keyboard,digit#1 off,"{""value"":8,""note"":""digit#1 off"",""pd_used"":0}",1,0.004181,239.179747,1
Sergio_G01_CNS-LLF5HT7Y0,S01,OFFmed_OFFstim,20260202_185125,2026-02-02 18:51:42.137996,1,1,probe,POSTDIG_FIX1_ON,151,2026-02-02 18:53:36.501168,114.308733,1.609539,,,,,,keyboard,after digit#1,"{""note"":""after digit#1""}",1,0.004181,239.179747,1
Sergio_G01_CNS-LLF5HT7Y0,S01,OFFmed_OFFstim,20260202_185125,2026-02-02 18:51:42.137996,1,1,probe,POSTDIG_FIX1_OFF,156,2026-02-02 18:53:38.101390,115.918272,0.050772,,,,,,keyboard,after digit#1,"{""note"":""after digit#1"",""pd_used"":0}",1,0.004181,239.179747,1
Sergio_G01_CNS-LLF5HT7Y0,S01,OFFmed_OFFstim,20260202_185125,2026-02-02 18:51:42.137996,1,1,probe,DIGIT_RECALL_LINE_2,162,2026-02-02 18:53:38.152832,115.969044,0.921546,,2,,,,keyboard,next recall question,"{""value"":2,""note"":""next recall question"",""pd_used"":1}",1,0.004181,239.179747,1
Sergio_G01_CNS-LLF5HT7Y0,S01,OFFmed_OFFstim,20260202_185125,2026-02-02 18:51:42.137996,1,1,probe,PROBE_DIGIT_OK_2,71,2026-02-02 18:53:39.568730,116.890589,0.586733,3.670260,slot#2,NaN,,,keyboard,probe_digit#2,"{""value"":""slot#2"",""entered"":null,""rt"":3.6702595999813639,""note"":""probe_digit#2""}",1,0.004181,239.179747,1
Sergio_G01_CNS-LLF5HT7Y0,S01,OFFmed_OFFstim,20260202_185125,2026-02-02 18:51:42.137996,1,1,probe,DIGIT2_OFF,147,2026-02-02 18:53:39.667033,117.477322,0.000000,,8,,,,keyboard,digit#2 off,"{""value"":8,""note"":""digit#2 off"",""pd_used"":0}",1,0.004181,239.179747,1
Sergio_G01_CNS-LLF5HT7Y0,S01,OFFmed_OFFstim,20260202_185125,2026-02-02 18:51:42.137996,1,1,probe,POSTDIG_FIX2_ON,152,2026-02-02 18:53:39.669785,117.477322,1.639637,,,,,,keyboard,after digit#2,"{""note"":""after digit#2""}",1,0.004181,239.179747,1
Sergio_G01_CNS-LLF5HT7Y0,S01,OFFmed_OFFstim,20260202_185125,2026-02-02 18:51:42.137996,1,1,probe,POSTDIG_FIX2_OFF,157,2026-02-02 18:53:41.299841,119.116960,0.051205,,,,,,keyboard,after digit#2,"{""note"":""after digit#2"",""pd_used"":0}",1,0.004181,239.179747,1
Sergio_G01_CNS-LLF5HT7Y0,S01,OFFmed_OFFstim,20260202_185125,2026-02-02 18:51:42.137996,1,1,probe,DIGIT_RECALL_LINE_3,163,2026-02-02 18:53:41.351719,119.168165,0.645613,,3,,,,keyboard,next recall question,"{""value"":3,""note"":""next recall question"",""pd_used"":1}",1,0.004181,239.179747,1
Sergio_G01_CNS-LLF5HT7Y0,S01,OFFmed_OFFstim,20260202_185125,2026-02-02 18:51:42.137996,1,1,probe,PROBE_DIGIT_OK_3,71,2026-02-02 18:53:42.528457,119.813777,0.625009,6.593447,slot#3,NaN,,,keyboard,probe_digit#3,"{""value"":""slot#3"",""entered"":null,""rt"":6.5934472999942955,""note"":""probe_digit#3""}",1,0.004181,239.179747,1
Sergio_G01_CNS-LLF5HT7Y0,S01,OFFmed_OFFstim,20260202_185125,2026-02-02 18:51:42.137996,1,1,probe,DIGIT3_OFF,148,2026-02-02 18:53:42.627719,120.438786,0.000000,,8,,,,keyboard,digit#3 off,"{""value"":8,""note"":""digit#3 off"",""pd_used"":0}",1,0.004181,239.179747,1
Sergio_G01_CNS-LLF5HT7Y0,S01,OFFmed_OFFstim,20260202_185125,2026-02-02 18:51:42.137996,1,1,probe,POSTDIG_FIX3_ON,153,2026-02-02 18:53:42.630253,120.438786,1.891243,,,,,,keyboard,after digit#3,"{""note"":""after digit#3""}",1,0.004181,239.179747,1
Sergio_G01_CNS-LLF5HT7Y0,S01,OFFmed_OFFstim,20260202_185125,2026-02-02 18:51:42.137996,1,1,probe,POSTDIG_FIX3_OFF,158,2026-02-02 18:53:44.513160,122.330029,0.051845,,,,,,keyboard,after digit#3,"{""note"":""after digit#3"",""pd_used"":0}",1,0.004181,239.179747,1
Sergio_G01_CNS-LLF5HT7Y0,S01,OFFmed_OFFstim,20260202_185125,2026-02-02 18:51:42.137996,1,1,probe,DIGIT_RECALL_LINE_4,164,2026-02-02 18:53:44.565650,122.381874,0.818998,,4,,,,keyboard,next recall question,"{""value"":4,""note"":""next recall question"",""pd_used"":1}",1,0.004181,239.179747,1
Sergio_G01_CNS-LLF5HT7Y0,S01,OFFmed_OFFstim,20260202_185125,2026-02-02 18:51:42.137996,1,1,probe,PROBE_DIGIT_OK_4,71,2026-02-02 18:53:45.998137,123.200871,0.706130,9.980541,slot#4,NaN,,,keyboard,probe_digit#4,"{""value"":""slot#4"",""entered"":null,""rt"":9.98054140000022,""note"":""probe_digit#4""}",1,0.004181,239.179747,1
Sergio_G01_CNS-LLF5HT7Y0,S01,OFFmed_OFFstim,20260202_185125,2026-02-02 18:51:42.137996,1,1,probe,DIGIT4_OFF,149,2026-02-02 18:53:46.097129,123.907001,0.000000,,8,,,,keyboard,digit#4 off,"{""value"":8,""note"":""digit#4 off"",""pd_used"":0}",1,0.004181,239.179747,1
Sergio_G01_CNS-LLF5HT7Y0,S01,OFFmed_OFFstim,20260202_185125,2026-02-02 18:51:42.137996,1,1,probe,POSTDIG_FIX4_ON,154,2026-02-02 18:53:46.100045,123.907001,1.572042,,,,,,keyboard,after digit#4,"{""note"":""after digit#4""}",1,0.004181,239.179747,1
Sergio_G01_CNS-LLF5HT7Y0,S01,OFFmed_OFFstim,20260202_185125,2026-02-02 18:51:42.137996,1,1,probe,POSTDIG_FIX4_OFF,159,2026-02-02 18:53:47.662171,125.479043,0.052520,,,,,,keyboard,after digit#4,"{""note"":""after digit#4"",""pd_used"":0}",1,0.004181,239.179747,1
Sergio_G01_CNS-LLF5HT7Y0,S01,OFFmed_OFFstim,20260202_185125,2026-02-02 18:51:42.137996,1,1,probe,DIGIT_RECALL_LINE_5,165,2026-02-02 18:53:47.713424,125.531563,0.912712,,5,,,,keyboard,next recall question,"{""value"":5,""note"":""next recall question"",""pd_used"":1}",1,0.004181,239.179747,1
Sergio_G01_CNS-LLF5HT7Y0,S01,OFFmed_OFFstim,20260202_185125,2026-02-02 18:51:42.137996,1,1,probe,PROBE_DIGIT_OK_5,71,2026-02-02 18:53:49.229886,126.444275,0.702317,13.223945,slot#5,NaN,,,keyboard,probe_digit#5,"{""value"":""slot#5"",""entered"":null,""rt"":13.223944800003665,""note"":""probe_digit#5""}",1,0.004181,239.179747,1
Sergio_G01_CNS-LLF5HT7Y0,S01,OFFmed_OFFstim,20260202_185125,2026-02-02 18:51:42.137996,1,1,probe,DIGIT5_OFF,150,2026-02-02 18:53:49.335034,127.146592,0.000000,,8,,,,keyboard,digit#5 off,"{""value"":8,""note"":""digit#5 off"",""pd_used"":0}",1,0.004181,239.179747,1
Sergio_G01_CNS-LLF5HT7Y0,S01,OFFmed_OFFstim,20260202_185125,2026-02-02 18:51:42.137996,1,1,probe,POSTDIG_FIX5_ON,155,2026-02-02 18:53:49.338628,127.146592,3.341770,,,,,,keyboard,after digit#5,"{""note"":""after digit#5""}",1,0.004181,239.179747,1
Sergio_G01_CNS-LLF5HT7Y0,S01,OFFmed_OFFstim,20260202_185125,2026-02-02 18:51:42.137996,1,1,probe,POSTDIG_FIX5_OFF,160,2026-02-02 18:53:52.670549,130.488362,0.049414,,,,,,keyboard,after digit#5,"{""note"":""after digit#5"",""pd_used"":0}",1,0.004181,239.179747,1
Sergio_G01_CNS-LLF5HT7Y0,S01,OFFmed_OFFstim,20260202_185125,2026-02-02 18:51:42.137996,1,1,probe,PROBE_DONE,73,2026-02-02 18:53:52.676717,130.537776,0.002640,,,,,,keyboard,probe complete,"{""value"":"""",""note"":""probe complete""}",1,0.004181,239.179747,1
Sergio_G01_CNS-LLF5HT7Y0,S01,OFFmed_OFFstim,20260202_185125,2026-02-02 18:51:42.137996,1,1,probe,TRIAL_END,21,2026-02-02 18:53:52.678931,130.540417,0.045334,,,,,,keyboard,,{},1,0.004181,239.179747,1
Sergio_G01_CNS-LLF5HT7Y0,S01,OFFmed_OFFstim,20260202_185125,2026-02-02 18:51:42.137996,1,1,probe,BLOCK_END,11,2026-02-02 18:53:52.724746,130.585751,0.255267,,,,,,keyboard,,{},1,0.004181,239.179747,1
Sergio_G01_CNS-LLF5HT7Y0,S01,OFFmed_OFFstim,20260202_185125,2026-02-02 18:51:42.137996,1,1,probe,SESSION_END,3,2026-02-02 18:53:52.979296,130.841017,NaN,,,,,,keyboard,,{},1,0.004181,239.179747,1
