file_version,subject,condition,session,task_start_time,block,trial,phase,event_name,event_code,wall_clock,t_rel_sec,duration_to_next,rt,value_shown,entered_value,correct,key_name,device,note,json,screen_index,ifi,refresh_hz,pd_used
Sergio_G01_CNS-LLF5HT7Y0,S01,OFFmed_OFFstim,20260202_162635,2026-02-02 16:26:42.777178,1,NaN,,BLOCK_START,10,2026-02-02 16:27:08.996817,26.211935,0.094772,,,,,,keyboard,,{},1,0.016690,59.917733,1
Sergio_G01_CNS-LLF5HT7Y0,S01,OFFmed_OFFstim,20260202_162635,2026-02-02 16:26:42.777178,1,0,reading,START_PAGE_ON,4,2026-02-02 16:27:09.131068,26.306707,0.067431,,,,,,keyboard,,"{""pd_used"":0}",1,0.016690,59.917733,1
Sergio_G01_CNS-LLF5HT7Y0,S01,OFFmed_OFFstim,20260202_162635,2026-02-02 16:26:42.777178,1,0,reading,START_PAGE_ON,4,2026-02-02 16:27:09.131068,26.306707,6.295753,,,,,,keyboard,,"{""pd_used"":0}",1,0.016690,59.917733,1
Sergio_G01_CNS-LLF5HT7Y0,S01,OFFmed_OFFstim,20260202_162635,2026-02-02 16:26:42.777178,1,0,reading,START_PAGE_ON,4,2026-02-02 16:27:09.131068,26.306707,6.678412,,,,,,keyboard,,"{""pd_used"":0}",1,0.016690,59.917733,1
Sergio_G01_CNS-LLF5HT7Y0,S01,OFFmed_OFFstim,20260202_162635,2026-02-02 16:26:42.777178,1,0,reading,READING_START,23,2026-02-02 16:27:15.763035,32.985119,0.081329,,,,,,keyboard,,{},1,0.016690,59.917733,1
Sergio_G01_CNS-LLF5HT7Y0,S01,OFFmed_OFFstim,20260202_162635,2026-02-02 16:26:42.777178,1,0,reading,DIGIT_READ1_ON,101,2026-02-02 16:27:15.889093,33.066449,0.316367,,8,,,,keyboard,digit#1 shown,"{""value"":8,""note"":""digit#1 shown"",""pd_used"":1}",1,0.016690,59.917733,1
Sergio_G01_CNS-LLF5HT7Y0,S01,OFFmed_OFFstim,20260202_162635,2026-02-02 16:26:42.777178,1,0,reading,PROBE_COUNT_OK_1,71,2026-02-02 16:27:16.564589,33.382816,0.471826,7.106799,slot#1,NaN,,,keyboard,probe_digit#1,"{""value"":""slot#1"",""entered"":null,""rt"":7.1067993000033312,""note"":""probe_digit#1""}",1,0.016690,59.917733,1
Sergio_G01_CNS-LLF5HT7Y0,S01,OFFmed_OFFstim,20260202_162635,2026-02-02 16:26:42.777178,1,0,reading,DIGIT_READ1_OFF,116,2026-02-02 16:27:16.676770,33.854642,0.000000,,8,,,,keyboard,digit#1 off,"{""value"":8,""note"":""digit#1 off"",""pd_used"":0}",1,0.016690,59.917733,1
Sergio_G01_CNS-LLF5HT7Y0,S01,OFFmed_OFFstim,20260202_162635,2026-02-02 16:26:42.777178,1,0,reading,POSTREAD_FIX1_ON,201,2026-02-02 16:27:16.682880,33.854642,2.007922,,,,,,keyboard,after digit#1,"{""note"":""after digit#1""}",1,0.016690,59.917733,1
Sergio_G01_CNS-LLF5HT7Y0,S01,OFFmed_OFFstim,20260202_162635,2026-02-02 16:26:42.777178,1,0,reading,POSTREAD_FIX1_OFF,216,2026-02-02 16:27:18.685254,35.862564,0.071541,,,,,,keyboard,after digit#1,"{""note"":""after digit#1"",""pd_used"":0}",1,0.016690,59.917733,1
Sergio_G01_CNS-LLF5HT7Y0,S01,OFFmed_OFFstim,20260202_162635,2026-02-02 16:26:42.777178,1,0,reading,DIGIT_READ2_ON,102,2026-02-02 16:27:18.756373,35.934105,1.785712,,8,,,,keyboard,digit#2 shown,"{""value"":8,""note"":""digit#2 shown"",""pd_used"":1}",1,0.016690,59.917733,1
Sergio_G01_CNS-LLF5HT7Y0,S01,OFFmed_OFFstim,20260202_162635,2026-02-02 16:26:42.777178,1,0,reading,PROBE_COUNT_OK_2,71,2026-02-02 16:27:20.977501,37.719817,0.538947,11.443801,slot#2,NaN,,,keyboard,probe_digit#2,"{""value"":""slot#2"",""entered"":null,""rt"":11.443800699984422,""note"":""probe_digit#2""}",1,0.016690,59.917733,1
Sergio_G01_CNS-LLF5HT7Y0,S01,OFFmed_OFFstim,20260202_162635,2026-02-02 16:26:42.777178,1,0,reading,DIGIT_READ2_OFF,117,2026-02-02 16:27:21.082141,38.258765,0.000000,,8,,,,keyboard,digit#2 off,"{""value"":8,""note"":""digit#2 off"",""pd_used"":0}",1,0.016690,59.917733,1
Sergio_G01_CNS-LLF5HT7Y0,S01,OFFmed_OFFstim,20260202_162635,2026-02-02 16:26:42.777178,1,0,reading,POSTREAD_FIX2_ON,202,2026-02-02 16:27:21.085375,38.258765,1.634233,,,,,,keyboard,after digit#2,"{""note"":""after digit#2""}",1,0.016690,59.917733,1
Sergio_G01_CNS-LLF5HT7Y0,S01,OFFmed_OFFstim,20260202_162635,2026-02-02 16:26:42.777178,1,0,reading,POSTREAD_FIX2_OFF,217,2026-02-02 16:27:22.716237,39.892998,0.069821,,,,,,keyboard,after digit#2,"{""note"":""after digit#2"",""pd_used"":0}",1,0.016690,59.917733,1
Sergio_G01_CNS-LLF5HT7Y0,S01,OFFmed_OFFstim,20260202_162635,2026-02-02 16:26:42.777178,1,0,reading,DIGIT_READ3_ON,103,2026-02-02 16:27:22.785381,39.962819,0.526173,,6,,,,keyboard,digit#3 shown,"{""value"":6,""note"":""digit#3 shown"",""pd_used"":1}",1,0.016690,59.917733,1
Sergio_G01_CNS-LLF5HT7Y0,S01,OFFmed_OFFstim,20260202_162635,2026-02-02 16:26:42.777178,1,0,reading,PROBE_COUNT_OK_3,71,2026-02-02 16:27:23.707185,40.488992,0.496404,14.212976,slot#3,NaN,,,keyboard,probe_digit#3,"{""value"":""slot#3"",""entered"":null,""rt"":14.212975500005996,""note"":""probe_digit#3""}",1,0.016690,59.917733,1
Sergio_G01_CNS-LLF5HT7Y0,S01,OFFmed_OFFstim,20260202_162635,2026-02-02 16:26:42.777178,1,0,reading,DIGIT_READ3_OFF,118,2026-02-02 16:27:23.810476,40.985396,0.000000,,6,,,,keyboard,digit#3 off,"{""value"":6,""note"":""digit#3 off"",""pd_used"":0}",1,0.016690,59.917733,1
Sergio_G01_CNS-LLF5HT7Y0,S01,OFFmed_OFFstim,20260202_162635,2026-02-02 16:26:42.777178,1,0,reading,POSTREAD_FIX3_ON,203,2026-02-02 16:27:23.813586,40.985396,1.710460,,,,,,keyboard,after digit#3,"{""note"":""after digit#3""}",1,0.016690,59.917733,1
Sergio_G01_CNS-LLF5HT7Y0,S01,OFFmed_OFFstim,20260202_162635,2026-02-02 16:26:42.777178,1,0,reading,POSTREAD_FIX3_OFF,218,2026-02-02 16:27:25.518362,42.695855,0.067016,,,,,,keyboard,after digit#3,"{""note"":""after digit#3"",""pd_used"":0}",1,0.016690,59.917733,1
Sergio_G01_CNS-LLF5HT7Y0,S01,OFFmed_OFFstim,20260202_162635,2026-02-02 16:26:42.777178,1,0,reading,DIGIT_READ4_ON,104,2026-02-02 16:27:25.585258,42.762871,0.565748,,2,,,,keyboard,digit#4 shown,"{""value"":2,""note"":""digit#4 shown"",""pd_used"":1}",1,0.016690,59.917733,1
Sergio_G01_CNS-LLF5HT7Y0,S01,OFFmed_OFFstim,20260202_162635,2026-02-02 16:26:42.777178,1,0,reading,PROBE_COUNT_OK_4,71,2026-02-02 16:27:26.595715,43.328619,0.545846,17.052602,slot#4,NaN,,,keyboard,probe_digit#4,"{""value"":""slot#4"",""entered"":null,""rt"":17.052602499985369,""note"":""probe_digit#4""}",1,0.016690,59.917733,1
Sergio_G01_CNS-LLF5HT7Y0,S01,OFFmed_OFFstim,20260202_162635,2026-02-02 16:26:42.777178,1,0,reading,DIGIT_READ4_OFF,119,2026-02-02 16:27:26.698251,43.874465,0.000000,,2,,,,keyboard,digit#4 off,"{""value"":2,""note"":""digit#4 off"",""pd_used"":0}",1,0.016690,59.917733,1
Sergio_G01_CNS-LLF5HT7Y0,S01,OFFmed_OFFstim,20260202_162635,2026-02-02 16:26:42.777178,1,0,reading,POSTREAD_FIX4_ON,204,2026-02-02 16:27:26.701462,43.874465,1.969608,,,,,,keyboard,after digit#4,"{""note"":""after digit#4""}",1,0.016690,59.917733,1
Sergio_G01_CNS-LLF5HT7Y0,S01,OFFmed_OFFstim,20260202_162635,2026-02-02 16:26:42.777178,1,0,reading,POSTREAD_FIX4_OFF,219,2026-02-02 16:27:28.667405,45.844073,0.068883,,,,,,keyboard,after digit#4,"{""note"":""after digit#4"",""pd_used"":0}",1,0.016690,59.917733,1
Sergio_G01_CNS-LLF5HT7Y0,S01,OFFmed_OFFstim,20260202_162635,2026-02-02 16:26:42.777178,1,0,reading,DIGIT_READ5_ON,105,2026-02-02 16:27:28.735880,45.912956,0.885181,,1,,,,keyboard,digit#5 shown,"{""value"":1,""note"":""digit#5 shown"",""pd_used"":1}",1,0.016690,59.917733,1
Sergio_G01_CNS-LLF5HT7Y0,S01,OFFmed_OFFstim,20260202_162635,2026-02-02 16:26:42.777178,1,0,reading,PROBE_COUNT_OK_5,71,2026-02-02 16:27:30.104763,46.798137,0.587773,20.522121,slot#5,NaN,,,keyboard,probe_digit#5,"{""value"":""slot#5"",""entered"":null,""rt"":20.522120699984953,""note"":""probe_digit#5""}",1,0.016690,59.917733,1
Sergio_G01_CNS-LLF5HT7Y0,S01,OFFmed_OFFstim,20260202_162635,2026-02-02 16:26:42.777178,1,0,reading,DIGIT_READ5_OFF,120,2026-02-02 16:27:30.205925,47.385910,0.000000,,1,,,,keyboard,digit#5 off,"{""value"":1,""note"":""digit#5 off"",""pd_used"":0}",1,0.016690,59.917733,1
Sergio_G01_CNS-LLF5HT7Y0,S01,OFFmed_OFFstim,20260202_162635,2026-02-02 16:26:42.777178,1,0,reading,POSTREAD_FIX5_ON,205,2026-02-02 16:27:30.207934,47.385910,2.054041,,,,,,keyboard,after digit#5,"{""note"":""after digit#5""}",1,0.016690,59.917733,1
Sergio_G01_CNS-LLF5HT7Y0,S01,OFFmed_OFFstim,20260202_162635,2026-02-02 16:26:42.777178,1,0,reading,POSTREAD_FIX5_OFF,220,2026-02-02 16:27:32.262961,49.439951,0.072277,,,,,,keyboard,after digit#5,"{""note"":""after digit#5"",""pd_used"":0}",1,0.016690,59.917733,1
Sergio_G01_CNS-LLF5HT7Y0,S01,OFFmed_OFFstim,20260202_162635,2026-02-02 16:26:42.777178,1,0,reading,DIGIT_READ6_ON,106,2026-02-02 16:27:32.332971,49.512228,0.886551,,0,,,,keyboard,digit#6 shown,"{""value"":0,""note"":""digit#6 shown"",""pd_used"":1}",1,0.016690,59.917733,1
Sergio_G01_CNS-LLF5HT7Y0,S01,OFFmed_OFFstim,20260202_162635,2026-02-02 16:26:42.777178,1,0,reading,PROBE_COUNT_OK_6,71,2026-02-02 16:27:33.679575,50.398780,0.557684,24.122763,slot#6,NaN,,,keyboard,probe_digit#6,"{""value"":""slot#6"",""entered"":null,""rt"":24.122763099992881,""note"":""probe_digit#6""}",1,0.016690,59.917733,1
Sergio_G01_CNS-LLF5HT7Y0,S01,OFFmed_OFFstim,20260202_162635,2026-02-02 16:26:42.777178,1,0,reading,DIGIT_READ6_OFF,121,2026-02-02 16:27:33.780461,50.956463,0.000000,,0,,,,keyboard,digit#6 off,"{""value"":0,""note"":""digit#6 off"",""pd_used"":0}",1,0.016690,59.917733,1
Sergio_G01_CNS-LLF5HT7Y0,S01,OFFmed_OFFstim,20260202_162635,2026-02-02 16:26:42.777178,1,0,reading,POSTREAD_FIX6_ON,206,2026-02-02 16:27:33.783269,50.956463,1.610051,,,,,,keyboard,after digit#6,"{""note"":""after digit#6""}",1,0.016690,59.917733,1
Sergio_G01_CNS-LLF5HT7Y0,S01,OFFmed_OFFstim,20260202_162635,2026-02-02 16:26:42.777178,1,0,reading,POSTREAD_FIX6_OFF,221,2026-02-02 16:27:35.388559,52.566514,0.063370,,,,,,keyboard,after digit#6,"{""note"":""after digit#6"",""pd_used"":0}",1,0.016690,59.917733,1
Sergio_G01_CNS-LLF5HT7Y0,S01,OFFmed_OFFstim,20260202_162635,2026-02-02 16:26:42.777178,1,0,reading,DIGIT_READ7_ON,107,2026-02-02 16:27:35.451167,52.629884,0.888953,,8,,,,keyboard,digit#7 shown,"{""value"":8,""note"":""digit#7 shown"",""pd_used"":1}",1,0.016690,59.917733,1
Sergio_G01_CNS-LLF5HT7Y0,S01,OFFmed_OFFstim,20260202_162635,2026-02-02 16:26:42.777178,1,0,reading,PROBE_COUNT_OK_7,71,2026-02-02 16:27:36.729564,53.518837,0.488609,27.242820,slot#7,NaN,,,keyboard,probe_digit#7,"{""value"":""slot#7"",""entered"":null,""rt"":27.242820199986454,""note"":""probe_digit#7""}",1,0.016690,59.917733,1
Sergio_G01_CNS-LLF5HT7Y0,S01,OFFmed_OFFstim,20260202_162635,2026-02-02 16:26:42.777178,1,0,reading,DIGIT_READ7_OFF,122,2026-02-02 16:27:36.830623,54.007446,0.000000,,8,,,,keyboard,digit#7 off,"{""value"":8,""note"":""digit#7 off"",""pd_used"":0}",1,0.016690,59.917733,1
Sergio_G01_CNS-LLF5HT7Y0,S01,OFFmed_OFFstim,20260202_162635,2026-02-02 16:26:42.777178,1,0,reading,POSTREAD_FIX7_ON,207,2026-02-02 16:27:36.833002,54.007446,1.761971,,,,,,keyboard,after digit#7,"{""note"":""after digit#7""}",1,0.016690,59.917733,1
Sergio_G01_CNS-LLF5HT7Y0,S01,OFFmed_OFFstim,20260202_162635,2026-02-02 16:26:42.777178,1,0,reading,POSTREAD_FIX7_OFF,222,2026-02-02 16:27:38.590685,55.769416,0.062326,,,,,,keyboard,after digit#7,"{""note"":""after digit#7"",""pd_used"":0}",1,0.016690,59.917733,1
Sergio_G01_CNS-LLF5HT7Y0,S01,OFFmed_OFFstim,20260202_162635,2026-02-02 16:26:42.777178,1,0,reading,DIGIT_READ8_ON,108,2026-02-02 16:27:38.654173,55.831742,0.917541,,4,,,,keyboard,digit#8 shown,"{""value"":4,""note"":""digit#8 shown"",""pd_used"":1}",1,0.016690,59.917733,1
Sergio_G01_CNS-LLF5HT7Y0,S01,OFFmed_OFFstim,20260202_162635,2026-02-02 16:26:42.777178,1,0,reading,PROBE_COUNT_OK_8,71,2026-02-02 16:27:40.018956,56.749283,0.545619,30.473267,slot#8,NaN,,,keyboard,probe_digit#8,"{""value"":""slot#8"",""entered"":null,""rt"":30.473266799992416,""note"":""probe_digit#8""}",1,0.016690,59.917733,1
Sergio_G01_CNS-LLF5HT7Y0,S01,OFFmed_OFFstim,20260202_162635,2026-02-02 16:26:42.777178,1,0,reading,DIGIT_READ8_OFF,123,2026-02-02 16:27:40.119320,57.294902,0.000000,,4,,,,keyboard,digit#8 off,"{""value"":4,""note"":""digit#8 off"",""pd_used"":0}",1,0.016690,59.917733,1
Sergio_G01_CNS-LLF5HT7Y0,S01,OFFmed_OFFstim,20260202_162635,2026-02-02 16:26:42.777178,1,0,reading,POSTREAD_FIX8_ON,208,2026-02-02 16:27:40.122370,57.294902,1.794121,,,,,,keyboard,after digit#8,"{""note"":""after digit#8""}",1,0.016690,59.917733,1
Sergio_G01_CNS-LLF5HT7Y0,S01,OFFmed_OFFstim,20260202_162635,2026-02-02 16:26:42.777178,1,0,reading,POSTREAD_FIX8_OFF,223,2026-02-02 16:27:41.911108,59.089023,0.074359,,,,,,keyboard,after digit#8,"{""note"":""after digit#8"",""pd_used"":0}",1,0.016690,59.917733,1
Sergio_G01_CNS-LLF5HT7Y0,S01,OFFmed_OFFstim,20260202_162635,2026-02-02 16:26:42.777178,1,0,reading,DIGIT_READ9_ON,109,2026-02-02 16:27:41.985178,59.163382,0.819840,,3,,,,keyboard,digit#9 shown,"{""value"":3,""note"":""digit#9 shown"",""pd_used"":1}",1,0.016690,59.917733,1
Sergio_G01_CNS-LLF5HT7Y0,S01,OFFmed_OFFstim,20260202_162635,2026-02-02 16:26:42.777178,1,0,reading,PROBE_COUNT_OK_9,71,2026-02-02 16:27:43.257380,59.983222,0.551308,33.707205,slot#9,NaN,,,keyboard,probe_digit#9,"{""value"":""slot#9"",""entered"":null,""rt"":33.707204899983481,""note"":""probe_digit#9""}",1,0.016690,59.917733,1
Sergio_G01_CNS-LLF5HT7Y0,S01,OFFmed_OFFstim,20260202_162635,2026-02-02 16:26:42.777178,1,0,reading,DIGIT_READ9_OFF,124,2026-02-02 16:27:43.358781,60.534530,0.000000,,3,,,,keyboard,digit#9 off,"{""value"":3,""note"":""digit#9 off"",""pd_used"":0}",1,0.016690,59.917733,1
Sergio_G01_CNS-LLF5HT7Y0,S01,OFFmed_OFFstim,20260202_162635,2026-02-02 16:26:42.777178,1,0,reading,POSTREAD_FIX9_ON,209,2026-02-02 16:27:43.361302,60.534530,2.041059,,,,,,keyboard,after digit#9,"{""note"":""after digit#9""}",1,0.016690,59.917733,1
Sergio_G01_CNS-LLF5HT7Y0,S01,OFFmed_OFFstim,20260202_162635,2026-02-02 16:26:42.777178,1,0,reading,POSTREAD_FIX9_OFF,224,2026-02-02 16:27:45.398431,62.575588,0.071294,,,,,,keyboard,after digit#9,"{""note"":""after digit#9"",""pd_used"":0}",1,0.016690,59.917733,1
Sergio_G01_CNS-LLF5HT7Y0,S01,OFFmed_OFFstim,20260202_162635,2026-02-02 16:26:42.777178,1,0,reading,DIGIT_READ10_ON,110,2026-02-02 16:27:45.468108,62.646882,0.924095,,4,,,,keyboard,digit#10 shown,"{""value"":4,""note"":""digit#10 shown"",""pd_used"":1}",1,0.016690,59.917733,1
Sergio_G01_CNS-LLF5HT7Y0,S01,OFFmed_OFFstim,20260202_162635,2026-02-02 16:26:42.777178,1,0,reading,PROBE_COUNT_OK_10,71,2026-02-02 16:27:46.928134,63.570977,0.633162,37.294960,slot#10,NaN,,,keyboard,probe_digit#10,"{""value"":""slot#10"",""entered"":null,""rt"":37.294960100000026,""note"":""probe_digit#10""}",1,0.016690,59.917733,1
Sergio_G01_CNS-LLF5HT7Y0,S01,OFFmed_OFFstim,20260202_162635,2026-02-02 16:26:42.777178,1,0,reading,DIGIT_READ10_OFF,125,2026-02-02 16:27:47.028950,64.204139,0.000000,,4,,,,keyboard,digit#10 off,"{""value"":4,""note"":""digit#10 off"",""pd_used"":0}",1,0.016690,59.917733,1
Sergio_G01_CNS-LLF5HT7Y0,S01,OFFmed_OFFstim,20260202_162635,2026-02-02 16:26:42.777178,1,0,reading,POSTREAD_FIX10_ON,210,2026-02-02 16:27:47.031616,64.204139,3.329487,,,,,,keyboard,after digit#10,"{""note"":""after digit#10""}",1,0.016690,59.917733,1
Sergio_G01_CNS-LLF5HT7Y0,S01,OFFmed_OFFstim,20260202_162635,2026-02-02 16:26:42.777178,1,0,reading,POSTREAD_FIX10_OFF,225,2026-02-02 16:27:50.354968,67.533626,0.062127,,,,,,keyboard,after digit#10,"{""note"":""after digit#10"",""pd_used"":0}",1,0.016690,59.917733,1
Sergio_G01_CNS-LLF5HT7Y0,S01,OFFmed_OFFstim,20260202_162635,2026-02-02 16:26:42.777178,1,0,reading,DIGIT_READ11_ON,111,2026-02-02 16:27:50.415946,67.595753,0.643798,,2,,,,keyboard,digit#11 shown,"{""value"":2,""note"":""digit#11 shown"",""pd_used"":1}",1,0.016690,59.917733,1
Sergio_G01_CNS-LLF5HT7Y0,S01,OFFmed_OFFstim,20260202_162635,2026-02-02 16:26:42.777178,1,0,reading,PROBE_COUNT_OK_11,71,2026-02-02 16:27:51.563509,68.239551,0.606085,41.963535,slot#11,NaN,,,keyboard,probe_digit#11,"{""value"":""slot#11"",""entered"":null,""rt"":41.963534699985757,""note"":""probe_digit#11""}",1,0.016690,59.917733,1
Sergio_G01_CNS-LLF5HT7Y0,S01,OFFmed_OFFstim,20260202_162635,2026-02-02 16:26:42.777178,1,0,reading,DIGIT_READ11_OFF,126,2026-02-02 16:27:51.668141,68.845636,0.000000,,2,,,,keyboard,digit#11 off,"{""value"":2,""note"":""digit#11 off"",""pd_used"":0}",1,0.016690,59.917733,1
Sergio_G01_CNS-LLF5HT7Y0,S01,OFFmed_OFFstim,20260202_162635,2026-02-02 16:26:42.777178,1,0,reading,POSTREAD_FIX11_ON,211,2026-02-02 16:27:51.670508,68.845636,3.289735,,,,,,keyboard,after digit#11,"{""note"":""after digit#11""}",1,0.016690,59.917733,1
Sergio_G01_CNS-LLF5HT7Y0,S01,OFFmed_OFFstim,20260202_162635,2026-02-02 16:26:42.777178,1,0,reading,POSTREAD_FIX11_OFF,226,2026-02-02 16:27:54.958484,72.135370,0.068406,,,,,,keyboard,after digit#11,"{""note"":""after digit#11"",""pd_used"":0}",1,0.016690,59.917733,1
Sergio_G01_CNS-LLF5HT7Y0,S01,OFFmed_OFFstim,20260202_162635,2026-02-02 16:26:42.777178,1,0,reading,DIGIT_READ12_ON,112,2026-02-02 16:27:55.026898,72.203776,0.757988,,3,,,,keyboard,digit#12 shown,"{""value"":3,""note"":""digit#12 shown"",""pd_used"":1}",1,0.016690,59.917733,1
Sergio_G01_CNS-LLF5HT7Y0,S01,OFFmed_OFFstim,20260202_162635,2026-02-02 16:26:42.777178,1,0,reading,PROBE_COUNT_OK_12,71,2026-02-02 16:27:56.295129,72.961764,0.610318,46.685747,slot#12,NaN,,,keyboard,probe_digit#12,"{""value"":""slot#12"",""entered"":null,""rt"":46.685746999981347,""note"":""probe_digit#12""}",1,0.016690,59.917733,1
Sergio_G01_CNS-LLF5HT7Y0,S01,OFFmed_OFFstim,20260202_162635,2026-02-02 16:26:42.777178,1,0,reading,DIGIT_READ12_OFF,127,2026-02-02 16:27:56.395800,73.572082,0.000000,,3,,,,keyboard,digit#12 off,"{""value"":3,""note"":""digit#12 off"",""pd_used"":0}",1,0.016690,59.917733,1
Sergio_G01_CNS-LLF5HT7Y0,S01,OFFmed_OFFstim,20260202_162635,2026-02-02 16:26:42.777178,1,0,reading,POSTREAD_FIX12_ON,212,2026-02-02 16:27:56.397829,73.572082,3.288334,,,,,,keyboard,after digit#12,"{""note"":""after digit#12""}",1,0.016690,59.917733,1
Sergio_G01_CNS-LLF5HT7Y0,S01,OFFmed_OFFstim,20260202_162635,2026-02-02 16:26:42.777178,1,0,reading,POSTREAD_FIX12_OFF,227,2026-02-02 16:27:59.683721,76.860416,0.068611,,,,,,keyboard,after digit#12,"{""note"":""after digit#12"",""pd_used"":0}",1,0.016690,59.917733,1
Sergio_G01_CNS-LLF5HT7Y0,S01,OFFmed_OFFstim,20260202_162635,2026-02-02 16:26:42.777178,1,0,reading,DIGIT_READ13_ON,113,2026-02-02 16:27:59.752138,76.929027,0.940251,,8,,,,keyboard,digit#13 shown,"{""value"":8,""note"":""digit#13 shown"",""pd_used"":1}",1,0.016690,59.917733,1
Sergio_G01_CNS-LLF5HT7Y0,S01,OFFmed_OFFstim,20260202_162635,2026-02-02 16:26:42.777178,1,0,reading,PROBE_COUNT_OK_13,71,2026-02-02 16:28:01.150876,77.869278,0.557956,51.593261,slot#13,NaN,,,keyboard,probe_digit#13,"{""value"":""slot#13"",""entered"":null,""rt"":51.5932610000018,""note"":""probe_digit#13""}",1,0.016690,59.917733,1
Sergio_G01_CNS-LLF5HT7Y0,S01,OFFmed_OFFstim,20260202_162635,2026-02-02 16:26:42.777178,1,0,reading,DIGIT_READ13_OFF,128,2026-02-02 16:28:01.252564,78.427233,0.000000,,8,,,,keyboard,digit#13 off,"{""value"":8,""note"":""digit#13 off"",""pd_used"":0}",1,0.016690,59.917733,1
Sergio_G01_CNS-LLF5HT7Y0,S01,OFFmed_OFFstim,20260202_162635,2026-02-02 16:26:42.777178,1,0,reading,POSTREAD_FIX13_ON,213,2026-02-02 16:28:01.255096,78.427233,3.311006,,,,,,keyboard,after digit#13,"{""note"":""after digit#13""}",1,0.016690,59.917733,1
Sergio_G01_CNS-LLF5HT7Y0,S01,OFFmed_OFFstim,20260202_162635,2026-02-02 16:26:42.777178,1,0,reading,POSTREAD_FIX13_OFF,228,2026-02-02 16:28:04.562001,81.738239,0.073709,,,,,,keyboard,after digit#13,"{""note"":""after digit#13"",""pd_used"":0}",1,0.016690,59.917733,1
Sergio_G01_CNS-LLF5HT7Y0,S01,OFFmed_OFFstim,20260202_162635,2026-02-02 16:26:42.777178,1,0,reading,DIGIT_READ14_ON,114,2026-02-02 16:28:04.635098,81.811948,0.611141,,8,,,,keyboard,digit#14 shown,"{""value"":8,""note"":""digit#14 shown"",""pd_used"":1}",1,0.016690,59.917733,1
Sergio_G01_CNS-LLF5HT7Y0,S01,OFFmed_OFFstim,20260202_162635,2026-02-02 16:26:42.777178,1,0,reading,PROBE_COUNT_OK_14,71,2026-02-02 16:28:05.751880,82.423089,0.606664,56.147072,slot#14,NaN,,,keyboard,probe_digit#14,"{""value"":""slot#14"",""entered"":null,""rt"":56.147072299994761,""note"":""probe_digit#14""}",1,0.016690,59.917733,1
Sergio_G01_CNS-LLF5HT7Y0,S01,OFFmed_OFFstim,20260202_162635,2026-02-02 16:26:42.777178,1,0,reading,DIGIT_READ14_OFF,129,2026-02-02 16:28:05.856582,83.029753,0.000000,,8,,,,keyboard,digit#14 off,"{""value"":8,""note"":""digit#14 off"",""pd_used"":0}",1,0.016690,59.917733,1
Sergio_G01_CNS-LLF5HT7Y0,S01,OFFmed_OFFstim,20260202_162635,2026-02-02 16:26:42.777178,1,0,reading,POSTREAD_FIX14_ON,214,2026-02-02 16:28:05.859384,83.029753,3.509273,,,,,,keyboard,after digit#14,"{""note"":""after digit#14""}",1,0.016690,59.917733,1
Sergio_G01_CNS-LLF5HT7Y0,S01,OFFmed_OFFstim,20260202_162635,2026-02-02 16:26:42.777178,1,0,reading,POSTREAD_FIX14_OFF,229,2026-02-02 16:28:09.362565,86.539026,0.075557,,,,,,keyboard,after digit#14,"{""note"":""after digit#14"",""pd_used"":0}",1,0.016690,59.917733,1
Sergio_G01_CNS-LLF5HT7Y0,S01,OFFmed_OFFstim,20260202_162635,2026-02-02 16:26:42.777178,1,0,reading,DIGIT_READ15_ON,115,2026-02-02 16:28:09.437417,86.614583,0.831626,,2,,,,keyboard,digit#15 shown,"{""value"":2,""note"":""digit#15 shown"",""pd_used"":1}",1,0.016690,59.917733,1
Sergio_G01_CNS-LLF5HT7Y0,S01,OFFmed_OFFstim,20260202_162635,2026-02-02 16:26:42.777178,1,0,reading,PROBE_COUNT_OK_15,71,2026-02-02 16:28:10.735483,87.446209,0.564865,61.170193,slot#15,NaN,,,keyboard,probe_digit#15,"{""value"":""slot#15"",""entered"":null,""rt"":61.170192599995062,""note"":""probe_digit#15""}",1,0.016690,59.917733,1
Sergio_G01_CNS-LLF5HT7Y0,S01,OFFmed_OFFstim,20260202_162635,2026-02-02 16:26:42.777178,1,0,reading,DIGIT_READ15_OFF,130,2026-02-02 16:28:10.836836,88.011075,0.000000,,2,,,,keyboard,digit#15 off,"{""value"":2,""note"":""digit#15 off"",""pd_used"":0}",1,0.016690,59.917733,1
Sergio_G01_CNS-LLF5HT7Y0,S01,OFFmed_OFFstim,20260202_162635,2026-02-02 16:26:42.777178,1,0,reading,POSTREAD_FIX15_ON,215,2026-02-02 16:28:10.839107,88.011075,3.111156,,,,,,keyboard,after digit#15,"{""note"":""after digit#15""}",1,0.016690,59.917733,1
Sergio_G01_CNS-LLF5HT7Y0,S01,OFFmed_OFFstim,20260202_162635,2026-02-02 16:26:42.777178,1,0,reading,POSTREAD_FIX15_OFF,230,2026-02-02 16:28:13.945802,91.122230,0.056456,,,,,,keyboard,after digit#15,"{""note"":""after digit#15"",""pd_used"":0}",1,0.016690,59.917733,1
Sergio_G01_CNS-LLF5HT7Y0,S01,OFFmed_OFFstim,20260202_162635,2026-02-02 16:26:42.777178,1,0,reading,READING_END,24,2026-02-02 16:28:13.956177,91.178686,0.065493,,,,,,keyboard,,{},1,0.016690,59.917733,1
Sergio_G01_CNS-LLF5HT7Y0,S01,OFFmed_OFFstim,20260202_162635,2026-02-02 16:26:42.777178,1,0,reading,START_PAGE_ON,4,2026-02-02 16:28:14.066973,91.244179,0.058263,,,,,,keyboard,,"{""pd_used"":0}",1,0.016690,59.917733,1
Sergio_G01_CNS-LLF5HT7Y0,S01,OFFmed_OFFstim,20260202_162635,2026-02-02 16:26:42.777178,1,0,reading,START_PAGE_ON,4,2026-02-02 16:28:14.066973,91.244179,1.914508,,,,,,keyboard,,"{""pd_used"":0}",1,0.016690,59.917733,1
Sergio_G01_CNS-LLF5HT7Y0,S01,OFFmed_OFFstim,20260202_162635,2026-02-02 16:26:42.777178,1,0,reading,START_PAGE_ON,4,2026-02-02 16:28:14.066973,91.244179,2.274731,,,,,,keyboard,,"{""pd_used"":0}",1,0.016690,59.917733,1
Sergio_G01_CNS-LLF5HT7Y0,S01,OFFmed_OFFstim,20260202_162635,2026-02-02 16:26:42.777178,1,0,reading,SESSION_START,1,2026-02-02 16:28:16.297214,93.518910,0.024758,,,,,,keyboard,,{},1,0.016690,59.917733,1
Sergio_G01_CNS-LLF5HT7Y0,S01,OFFmed_OFFstim,20260202_162635,2026-02-02 16:26:42.777178,1,1,reading,TRIAL_CHANGE,22,2026-02-02 16:28:16.321799,93.543669,0.002960,,,,,,keyboard,trial transition,"{""note"":""trial transition""}",1,0.016690,59.917733,1
Sergio_G01_CNS-LLF5HT7Y0,S01,OFFmed_OFFstim,20260202_162635,2026-02-02 16:26:42.777178,1,1,reading,TRIAL_START,20,2026-02-02 16:28:16.324086,93.546628,0.059474,,,,,,keyboard,,{},1,0.016690,59.917733,1
Sergio_G01_CNS-LLF5HT7Y0,S01,OFFmed_OFFstim,20260202_162635,2026-02-02 16:26:42.777178,1,1,fix1,FIX1_ON,30,2026-02-02 16:28:16.429104,93.606102,3.063375,,,,,,keyboard,,"{""pd_used"":0}",1,0.016690,59.917733,1
Sergio_G01_CNS-LLF5HT7Y0,S01,OFFmed_OFFstim,20260202_162635,2026-02-02 16:26:42.777178,1,1,fix1,FIX1_OFF,31,2026-02-02 16:28:19.492881,96.669477,0.059791,,,,,,keyboard,,"{""pd_used"":0}",1,0.016690,59.917733,1
Sergio_G01_CNS-LLF5HT7Y0,S01,OFFmed_OFFstim,20260202_162635,2026-02-02 16:26:42.777178,1,1,digit,DIGIT1_ON,141,2026-02-02 16:28:19.552362,96.729269,0.558184,,4,,,,keyboard,digit#1 shown,"{""value"":4,""note"":""digit#1 shown"",""pd_used"":1}",1,0.016690,59.917733,1
Sergio_G01_CNS-LLF5HT7Y0,S01,OFFmed_OFFstim,20260202_162635,2026-02-02 16:26:42.777178,1,1,digit,DIGIT1_OFF,146,2026-02-02 16:28:20.110659,97.287453,0.000000,,4,,,,keyboard,digit#1 off,"{""value"":4,""note"":""digit#1 off"",""pd_used"":0}",1,0.016690,59.917733,1
Sergio_G01_CNS-LLF5HT7Y0,S01,OFFmed_OFFstim,20260202_162635,2026-02-02 16:26:42.777178,1,1,digit,POSTDIG_FIX1_ON,151,2026-02-02 16:28:20.113516,97.287453,1.570500,,,,,,keyboard,after digit#1,"{""note"":""after digit#1""}",1,0.016690,59.917733,1
Sergio_G01_CNS-LLF5HT7Y0,S01,OFFmed_OFFstim,20260202_162635,2026-02-02 16:26:42.777178,1,1,digit,POSTDIG_FIX1_OFF,156,2026-02-02 16:28:21.681273,98.857953,0.058235,,,,,,keyboard,after digit#1,"{""note"":""after digit#1"",""pd_used"":0}",1,0.016690,59.917733,1
Sergio_G01_CNS-LLF5HT7Y0,S01,OFFmed_OFFstim,20260202_162635,2026-02-02 16:26:42.777178,1,1,digit,DIGIT2_ON,142,2026-02-02 16:28:21.738063,98.916187,0.556789,,6,,,,keyboard,digit#2 shown,"{""value"":6,""note"":""digit#2 shown"",""pd_used"":1}",1,0.016690,59.917733,1
Sergio_G01_CNS-LLF5HT7Y0,S01,OFFmed_OFFstim,20260202_162635,2026-02-02 16:26:42.777178,1,1,digit,DIGIT2_OFF,147,2026-02-02 16:28:22.295273,99.472976,0.000000,,6,,,,keyboard,digit#2 off,"{""value"":6,""note"":""digit#2 off"",""pd_used"":0}",1,0.016690,59.917733,1
Sergio_G01_CNS-LLF5HT7Y0,S01,OFFmed_OFFstim,20260202_162635,2026-02-02 16:26:42.777178,1,1,digit,POSTDIG_FIX2_ON,152,2026-02-02 16:28:22.297645,99.472976,1.794203,,,,,,keyboard,after digit#2,"{""note"":""after digit#2""}",1,0.016690,59.917733,1
Sergio_G01_CNS-LLF5HT7Y0,S01,OFFmed_OFFstim,20260202_162635,2026-02-02 16:26:42.777178,1,1,digit,POSTDIG_FIX2_OFF,157,2026-02-02 16:28:24.089835,101.267179,0.057371,,,,,,keyboard,after digit#2,"{""note"":""after digit#2"",""pd_used"":0}",1,0.016690,59.917733,1
Sergio_G01_CNS-LLF5HT7Y0,S01,OFFmed_OFFstim,20260202_162635,2026-02-02 16:26:42.777178,1,1,digit,DIGIT3_ON,143,2026-02-02 16:28:24.146284,101.324551,0.557105,,3,,,,keyboard,digit#3 shown,"{""value"":3,""note"":""digit#3 shown"",""pd_used"":1}",1,0.016690,59.917733,1
Sergio_G01_CNS-LLF5HT7Y0,S01,OFFmed_OFFstim,20260202_162635,2026-02-02 16:26:42.777178,1,1,digit,DIGIT3_OFF,148,2026-02-02 16:28:24.706083,101.881655,0.000000,,3,,,,keyboard,digit#3 off,"{""value"":3,""note"":""digit#3 off"",""pd_used"":0}",1,0.016690,59.917733,1
Sergio_G01_CNS-LLF5HT7Y0,S01,OFFmed_OFFstim,20260202_162635,2026-02-02 16:26:42.777178,1,1,digit,POSTDIG_FIX3_ON,153,2026-02-02 16:28:24.709425,101.881655,1.652603,,,,,,keyboard,after digit#3,"{""note"":""after digit#3""}",1,0.016690,59.917733,1
Sergio_G01_CNS-LLF5HT7Y0,S01,OFFmed_OFFstim,20260202_162635,2026-02-02 16:26:42.777178,1,1,digit,POSTDIG_FIX3_OFF,158,2026-02-02 16:28:26.357016,103.534258,0.059475,,,,,,keyboard,after digit#3,"{""note"":""after digit#3"",""pd_used"":0}",1,0.016690,59.917733,1
Sergio_G01_CNS-LLF5HT7Y0,S01,OFFmed_OFFstim,20260202_162635,2026-02-02 16:26:42.777178,1,1,digit,DIGIT4_ON,144,2026-02-02 16:28:26.413896,103.593733,0.555221,,4,,,,keyboard,digit#4 shown,"{""value"":4,""note"":""digit#4 shown"",""pd_used"":1}",1,0.016690,59.917733,1
Sergio_G01_CNS-LLF5HT7Y0,S01,OFFmed_OFFstim,20260202_162635,2026-02-02 16:26:42.777178,1,1,digit,DIGIT4_OFF,149,2026-02-02 16:28:26.972537,104.148955,0.000000,,4,,,,keyboard,digit#4 off,"{""value"":4,""note"":""digit#4 off"",""pd_used"":0}",1,0.016690,59.917733,1
Sergio_G01_CNS-LLF5HT7Y0,S01,OFFmed_OFFstim,20260202_162635,2026-02-02 16:26:42.777178,1,1,digit,POSTDIG_FIX4_ON,154,2026-02-02 16:28:26.975748,104.148955,1.694290,,,,,,keyboard,after digit#4,"{""note"":""after digit#4""}",1,0.016690,59.917733,1
Sergio_G01_CNS-LLF5HT7Y0,S01,OFFmed_OFFstim,20260202_162635,2026-02-02 16:26:42.777178,1,1,digit,POSTDIG_FIX4_OFF,159,2026-02-02 16:28:28.666347,105.843245,0.060173,,,,,,keyboard,after digit#4,"{""note"":""after digit#4"",""pd_used"":0}",1,0.016690,59.917733,1
Sergio_G01_CNS-LLF5HT7Y0,S01,OFFmed_OFFstim,20260202_162635,2026-02-02 16:26:42.777178,1,1,digit,DIGIT5_ON,145,2026-02-02 16:28:28.725798,105.903418,0.559717,,6,,,,keyboard,digit#5 shown,"{""value"":6,""note"":""digit#5 shown"",""pd_used"":1}",1,0.016690,59.917733,1
Sergio_G01_CNS-LLF5HT7Y0,S01,OFFmed_OFFstim,20260202_162635,2026-02-02 16:26:42.777178,1,1,digit,DIGIT5_OFF,150,2026-02-02 16:28:29.285829,106.463135,0.000000,,6,,,,keyboard,digit#5 off,"{""value"":6,""note"":""digit#5 off"",""pd_used"":0}",1,0.016690,59.917733,1
Sergio_G01_CNS-LLF5HT7Y0,S01,OFFmed_OFFstim,20260202_162635,2026-02-02 16:26:42.777178,1,1,digit,POSTDIG_FIX5_ON,155,2026-02-02 16:28:29.290318,106.463135,3.412299,,,,,,keyboard,after digit#5,"{""note"":""after digit#5""}",1,0.016690,59.917733,1
Sergio_G01_CNS-LLF5HT7Y0,S01,OFFmed_OFFstim,20260202_162635,2026-02-02 16:26:42.777178,1,1,digit,POSTDIG_FIX5_OFF,160,2026-02-02 16:28:32.698388,109.875434,0.068437,,,,,,keyboard,after digit#5,"{""note"":""after digit#5"",""pd_used"":0}",1,0.016690,59.917733,1
Sergio_G01_CNS-LLF5HT7Y0,S01,OFFmed_OFFstim,20260202_162635,2026-02-02 16:26:42.777178,1,1,distractor,DISTRACTOR_ON,50,2026-02-02 16:28:32.765600,109.943871,1.663370,,2+4=5,,,,keyboard,,"{""value"":""2+4=5"",""isCorrectTruth"":false,""trueSum"":6,""pd_used"":1}",1,0.016690,59.917733,1
Sergio_G01_CNS-LLF5HT7Y0,S01,OFFmed_OFFstim,20260202_162635,2026-02-02 16:26:42.777178,1,1,distractor,DISTRACTOR_ANS,51,2026-02-02 16:28:35.040989,111.607240,0.000000,1.663370,2+4=5,F,1,,keyboard,key= (False),"{""value"":""2+4=5"",""entered"":""F"",""rt"":1.6633696999924723,""correct"":1,""note"":""key= (False)"",""truth"":false,""trueSum"":6,""shownSum"":5,""a"":2,""b"":4}",1,0.016690,59.917733,1
Sergio_G01_CNS-LLF5HT7Y0,S01,OFFmed_OFFstim,20260202_162635,2026-02-02 16:26:42.777178,1,1,distractor,ANS_CORRECT,100,2026-02-02 16:28:35.090144,111.607240,0.717907,,,,,,keyboard,,{},1,0.016690,59.917733,1
Sergio_G01_CNS-LLF5HT7Y0,S01,OFFmed_OFFstim,20260202_162635,2026-02-02 16:26:42.777178,1,1,distractor,DISTRACTOR_OFF,52,2026-02-02 16:28:35.147958,112.325147,0.000000,,,,,,keyboard,,"{""pd_used"":0}",1,0.016690,59.917733,1
Sergio_G01_CNS-LLF5HT7Y0,S01,OFFmed_OFFstim,20260202_162635,2026-02-02 16:26:42.777178,1,1,distractor,FIX2_ON,60,2026-02-02 16:28:35.150854,112.325147,3.433967,,,,,,keyboard,immediate after response,"{""note"":""immediate after response""}",1,0.016690,59.917733,1
Sergio_G01_CNS-LLF5HT7Y0,S01,OFFmed_OFFstim,20260202_162635,2026-02-02 16:26:42.777178,1,1,fix2,FIX2_OFF,61,2026-02-02 16:28:38.581575,115.759114,0.060614,,,,,,keyboard,,"{""pd_used"":0}",1,0.016690,59.917733,1
Sergio_G01_CNS-LLF5HT7Y0,S01,OFFmed_OFFstim,20260202_162635,2026-02-02 16:26:42.777178,1,1,probe,DIGIT_RECALL_LINE_1,161,2026-02-02 16:28:38.643549,115.819728,1.219165,,1,,,,keyboard,first recall question,"{""value"":1,""note"":""first recall question"",""pd_used"":1}",1,0.016690,59.917733,1
Sergio_G01_CNS-LLF5HT7Y0,S01,OFFmed_OFFstim,20260202_162635,2026-02-02 16:26:42.777178,1,1,probe,PROBE_DIGIT_OK_1,71,2026-02-02 16:28:40.289690,117.038893,0.528533,1.232372,slot#1,NaN,,,keyboard,probe_digit#1,"{""value"":""slot#1"",""entered"":null,""rt"":1.2323716999962926,""note"":""probe_digit#1""}",1,0.016690,59.917733,1
Sergio_G01_CNS-LLF5HT7Y0,S01,OFFmed_OFFstim,20260202_162635,2026-02-02 16:26:42.777178,1,1,probe,DIGIT1_OFF,146,2026-02-02 16:28:40.391472,117.567426,0.000000,,6,,,,keyboard,digit#1 off,"{""value"":6,""note"":""digit#1 off"",""pd_used"":0}",1,0.016690,59.917733,1
Sergio_G01_CNS-LLF5HT7Y0,S01,OFFmed_OFFstim,20260202_162635,2026-02-02 16:26:42.777178,1,1,probe,POSTDIG_FIX1_ON,151,2026-02-02 16:28:40.394576,117.567426,1.707201,,,,,,keyboard,after digit#1,"{""note"":""after digit#1""}",1,0.016690,59.917733,1
Sergio_G01_CNS-LLF5HT7Y0,S01,OFFmed_OFFstim,20260202_162635,2026-02-02 16:26:42.777178,1,1,probe,POSTDIG_FIX1_OFF,156,2026-02-02 16:28:42.096086,119.274627,0.070874,,,,,,keyboard,after digit#1,"{""note"":""after digit#1"",""pd_used"":0}",1,0.016690,59.917733,1
Sergio_G01_CNS-LLF5HT7Y0,S01,OFFmed_OFFstim,20260202_162635,2026-02-02 16:26:42.777178,1,1,probe,DIGIT_RECALL_LINE_2,162,2026-02-02 16:28:42.167368,119.345500,1.217503,,2,,,,keyboard,next recall question,"{""value"":2,""note"":""next recall question"",""pd_used"":1}",1,0.016690,59.917733,1
Sergio_G01_CNS-LLF5HT7Y0,S01,OFFmed_OFFstim,20260202_162635,2026-02-02 16:26:42.777178,1,1,probe,PROBE_DIGIT_OK_2,71,2026-02-02 16:28:43.817340,120.563004,0.530744,4.756482,slot#2,NaN,,,keyboard,probe_digit#2,"{""value"":""slot#2"",""entered"":null,""rt"":4.7564824000000954,""note"":""probe_digit#2""}",1,0.016690,59.917733,1
Sergio_G01_CNS-LLF5HT7Y0,S01,OFFmed_OFFstim,20260202_162635,2026-02-02 16:26:42.777178,1,1,probe,DIGIT2_OFF,147,2026-02-02 16:28:43.918504,121.093747,0.000000,,6,,,,keyboard,digit#2 off,"{""value"":6,""note"":""digit#2 off"",""pd_used"":0}",1,0.016690,59.917733,1
Sergio_G01_CNS-LLF5HT7Y0,S01,OFFmed_OFFstim,20260202_162635,2026-02-02 16:26:42.777178,1,1,probe,POSTDIG_FIX2_ON,152,2026-02-02 16:28:43.921520,121.093747,1.637874,,,,,,keyboard,after digit#2,"{""note"":""after digit#2""}",1,0.016690,59.917733,1
Sergio_G01_CNS-LLF5HT7Y0,S01,OFFmed_OFFstim,20260202_162635,2026-02-02 16:26:42.777178,1,1,probe,POSTDIG_FIX2_OFF,157,2026-02-02 16:28:45.553755,122.731622,0.063369,,,,,,keyboard,after digit#2,"{""note"":""after digit#2"",""pd_used"":0}",1,0.016690,59.917733,1
Sergio_G01_CNS-LLF5HT7Y0,S01,OFFmed_OFFstim,20260202_162635,2026-02-02 16:26:42.777178,1,1,probe,DIGIT_RECALL_LINE_3,163,2026-02-02 16:28:45.617564,122.794990,0.630237,,3,,,,keyboard,next recall question,"{""value"":3,""note"":""next recall question"",""pd_used"":1}",1,0.016690,59.917733,1
Sergio_G01_CNS-LLF5HT7Y0,S01,OFFmed_OFFstim,20260202_162635,2026-02-02 16:26:42.777178,1,1,probe,PROBE_DIGIT_OK_3,71,2026-02-02 16:28:46.680263,123.425227,0.532304,7.618706,slot#3,NaN,,,keyboard,probe_digit#3,"{""value"":""slot#3"",""entered"":null,""rt"":7.6187060999800451,""note"":""probe_digit#3""}",1,0.016690,59.917733,1
Sergio_G01_CNS-LLF5HT7Y0,S01,OFFmed_OFFstim,20260202_162635,2026-02-02 16:26:42.777178,1,1,probe,DIGIT3_OFF,148,2026-02-02 16:28:46.781447,123.957532,0.000000,,6,,,,keyboard,digit#3 off,"{""value"":6,""note"":""digit#3 off"",""pd_used"":0}",1,0.016690,59.917733,1
Sergio_G01_CNS-LLF5HT7Y0,S01,OFFmed_OFFstim,20260202_162635,2026-02-02 16:26:42.777178,1,1,probe,POSTDIG_FIX3_ON,153,2026-02-02 16:28:46.783991,123.957532,1.760844,,,,,,keyboard,after digit#3,"{""note"":""after digit#3""}",1,0.016690,59.917733,1
Sergio_G01_CNS-LLF5HT7Y0,S01,OFFmed_OFFstim,20260202_162635,2026-02-02 16:26:42.777178,1,1,probe,POSTDIG_FIX3_OFF,158,2026-02-02 16:28:48.539152,125.718376,0.061021,,,,,,keyboard,after digit#3,"{""note"":""after digit#3"",""pd_used"":0}",1,0.016690,59.917733,1
Sergio_G01_CNS-LLF5HT7Y0,S01,OFFmed_OFFstim,20260202_162635,2026-02-02 16:26:42.777178,1,1,probe,DIGIT_RECALL_LINE_4,164,2026-02-02 16:28:48.598748,125.779397,1.178992,,4,,,,keyboard,next recall question,"{""value"":4,""note"":""next recall question"",""pd_used"":1}",1,0.016690,59.917733,1
Sergio_G01_CNS-LLF5HT7Y0,S01,OFFmed_OFFstim,20260202_162635,2026-02-02 16:26:42.777178,1,1,probe,PROBE_DIGIT_OK_4,71,2026-02-02 16:28:50.879726,126.958388,1.199079,11.151867,slot#4,NaN,,,keyboard,probe_digit#4,"{""value"":""slot#4"",""entered"":null,""rt"":11.151866900007008,""note"":""probe_digit#4""}",1,0.016690,59.917733,1
Sergio_G01_CNS-LLF5HT7Y0,S01,OFFmed_OFFstim,20260202_162635,2026-02-02 16:26:42.777178,1,1,probe,DIGIT4_OFF,149,2026-02-02 16:28:50.980968,128.157467,0.000000,,6,,,,keyboard,digit#4 off,"{""value"":6,""note"":""digit#4 off"",""pd_used"":0}",1,0.016690,59.917733,1
Sergio_G01_CNS-LLF5HT7Y0,S01,OFFmed_OFFstim,20260202_162635,2026-02-02 16:26:42.777178,1,1,probe,POSTDIG_FIX4_ON,154,2026-02-02 16:28:50.983843,128.157467,1.704232,,,,,,keyboard,after digit#4,"{""note"":""after digit#4""}",1,0.016690,59.917733,1
Sergio_G01_CNS-LLF5HT7Y0,S01,OFFmed_OFFstim,20260202_162635,2026-02-02 16:26:42.777178,1,1,probe,POSTDIG_FIX4_OFF,159,2026-02-02 16:28:52.685054,129.861699,0.065863,,,,,,keyboard,after digit#4,"{""note"":""after digit#4"",""pd_used"":0}",1,0.016690,59.917733,1
Sergio_G01_CNS-LLF5HT7Y0,S01,OFFmed_OFFstim,20260202_162635,2026-02-02 16:26:42.777178,1,1,probe,DIGIT_RECALL_LINE_5,165,2026-02-02 16:28:52.750504,129.927562,0.655552,,5,,,,keyboard,next recall question,"{""value"":5,""note"":""next recall question"",""pd_used"":1}",1,0.016690,59.917733,1
Sergio_G01_CNS-LLF5HT7Y0,S01,OFFmed_OFFstim,20260202_162635,2026-02-02 16:26:42.777178,1,1,probe,PROBE_DIGIT_OK_5,71,2026-02-02 16:28:53.829399,130.583114,0.524485,14.776592,slot#5,NaN,,,keyboard,probe_digit#5,"{""value"":""slot#5"",""entered"":null,""rt"":14.776592499983963,""note"":""probe_digit#5""}",1,0.016690,59.917733,1
Sergio_G01_CNS-LLF5HT7Y0,S01,OFFmed_OFFstim,20260202_162635,2026-02-02 16:26:42.777178,1,1,probe,DIGIT5_OFF,150,2026-02-02 16:28:53.929912,131.107599,0.000000,,6,,,,keyboard,digit#5 off,"{""value"":6,""note"":""digit#5 off"",""pd_used"":0}",1,0.016690,59.917733,1
Sergio_G01_CNS-LLF5HT7Y0,S01,OFFmed_OFFstim,20260202_162635,2026-02-02 16:26:42.777178,1,1,probe,POSTDIG_FIX5_ON,155,2026-02-02 16:28:53.933968,131.107599,3.077018,,,,,,keyboard,after digit#5,"{""note"":""after digit#5""}",1,0.016690,59.917733,1
Sergio_G01_CNS-LLF5HT7Y0,S01,OFFmed_OFFstim,20260202_162635,2026-02-02 16:26:42.777178,1,1,probe,POSTDIG_FIX5_OFF,160,2026-02-02 16:28:57.006501,134.184616,0.055740,,,,,,keyboard,after digit#5,"{""note"":""after digit#5"",""pd_used"":0}",1,0.016690,59.917733,1
Sergio_G01_CNS-LLF5HT7Y0,S01,OFFmed_OFFstim,20260202_162635,2026-02-02 16:26:42.777178,1,1,probe,PROBE_DONE,73,2026-02-02 16:28:57.018214,134.240356,0.002640,,,,,,keyboard,probe complete,"{""value"":"""",""note"":""probe complete""}",1,0.016690,59.917733,1
Sergio_G01_CNS-LLF5HT7Y0,S01,OFFmed_OFFstim,20260202_162635,2026-02-02 16:26:42.777178,1,1,probe,TRIAL_END,21,2026-02-02 16:28:57.020303,134.242996,0.045923,,,,,,keyboard,,{},1,0.016690,59.917733,1
Sergio_G01_CNS-LLF5HT7Y0,S01,OFFmed_OFFstim,20260202_162635,2026-02-02 16:26:42.777178,1,1,probe,BLOCK_END,11,2026-02-02 16:28:57.066975,134.288918,0.313065,,,,,,keyboard,,{},1,0.016690,59.917733,1
Sergio_G01_CNS-LLF5HT7Y0,S01,OFFmed_OFFstim,20260202_162635,2026-02-02 16:26:42.777178,1,1,probe,SESSION_END,3,2026-02-02 16:28:57.380016,134.601983,NaN,,,,,,keyboard,,{},1,0.016690,59.917733,1
