file_version,subject,condition,session,task_start_time,block,trial,phase,event_name,event_code,wall_clock,t_rel_sec,duration_to_next,rt,value_shown,entered_value,correct,key_name,device,note,json,screen_index,ifi,refresh_hz,pd_used
Sergio_G01_CNS-LLF5HT7Y0,S01,OFFmed_OFFstim,20260122_161604,2026-01-22 16:16:08.647137,1,NaN,,BLOCK_START,10,2026-01-22 16:16:34.172431,25.520651,0.120432,,,,,,keyboard,,{},0,0.004164,240.181616,1
Sergio_G01_CNS-LLF5HT7Y0,S01,OFFmed_OFFstim,20260122_161604,2026-01-22 16:16:08.647137,1,0,reading,START_PAGE_ON,4,2026-01-22 16:16:34.337989,25.641083,0.126581,,,,,,keyboard,,"{""pd_used"":0}",0,0.004164,240.181616,1
Sergio_G01_CNS-LLF5HT7Y0,S01,OFFmed_OFFstim,20260122_161604,2026-01-22 16:16:08.647137,1,0,reading,START_PAGE_ON,4,2026-01-22 16:16:34.337989,25.641083,6.729970,,,,,,keyboard,,"{""pd_used"":0}",0,0.004164,240.181616,1
Sergio_G01_CNS-LLF5HT7Y0,S01,OFFmed_OFFstim,20260122_161604,2026-01-22 16:16:08.647137,1,0,reading,START_PAGE_ON,4,2026-01-22 16:16:34.337989,25.641083,7.106391,,,,,,keyboard,,"{""pd_used"":0}",0,0.004164,240.181616,1
Sergio_G01_CNS-LLF5HT7Y0,S01,OFFmed_OFFstim,20260122_161604,2026-01-22 16:16:08.647137,1,0,reading,CONTROL_START,23,2026-01-22 16:16:41.398605,32.747473,0.086720,,,,,,keyboard,,{},0,0.004164,240.181616,1
Sergio_G01_CNS-LLF5HT7Y0,S01,OFFmed_OFFstim,20260122_161604,2026-01-22 16:16:08.647137,1,0,reading,DIGIT_READ1_ON,201,2026-01-22 16:16:41.525686,32.834194,2.382829,,0,,,,keyboard,digit#1 shown,"{""value"":0,""note"":""digit#1 shown"",""pd_used"":1}",0,0.004164,240.181616,1
Sergio_G01_CNS-LLF5HT7Y0,S01,OFFmed_OFFstim,20260122_161604,2026-01-22 16:16:08.647137,1,0,reading,PROBE_COUNT_OK_1,71,2026-01-22 16:16:47.209762,35.217023,3.412262,9.608040,slot#1,NaN,,,keyboard,probe_digit#1,"{""value"":""slot#1"",""entered"":null,""rt"":9.6080404000822455,""note"":""probe_digit#1""}",0,0.004164,240.181616,1
Sergio_G01_CNS-LLF5HT7Y0,S01,OFFmed_OFFstim,20260122_161604,2026-01-22 16:16:08.647137,1,0,reading,DIGIT_READ1_OFF,211,2026-01-22 16:16:47.320403,38.629284,0.000000,,0,,,,keyboard,digit#1 off,"{""value"":0,""note"":""digit#1 off"",""pd_used"":0}",0,0.004164,240.181616,1
Sergio_G01_CNS-LLF5HT7Y0,S01,OFFmed_OFFstim,20260122_161604,2026-01-22 16:16:08.647137,1,0,reading,POSTREAD_FIX1_ON,231,2026-01-22 16:16:47.326976,38.629284,1.947301,,,,,,keyboard,after digit#1,"{""note"":""after digit#1""}",0,0.004164,240.181616,1
Sergio_G01_CNS-LLF5HT7Y0,S01,OFFmed_OFFstim,20260122_161604,2026-01-22 16:16:08.647137,1,0,reading,POSTREAD_FIX1_OFF,241,2026-01-22 16:16:49.269667,40.576585,0.061096,,,,,,keyboard,after digit#1,"{""note"":""after digit#1"",""pd_used"":0}",0,0.004164,240.181616,1
Sergio_G01_CNS-LLF5HT7Y0,S01,OFFmed_OFFstim,20260122_161604,2026-01-22 16:16:08.647137,1,0,reading,DIGIT_READ2_ON,202,2026-01-22 16:16:49.328667,40.637681,1.019494,,1,,,,keyboard,digit#2 shown,"{""value"":1,""note"":""digit#2 shown"",""pd_used"":1}",0,0.004164,240.181616,1
Sergio_G01_CNS-LLF5HT7Y0,S01,OFFmed_OFFstim,20260122_161604,2026-01-22 16:16:08.647137,1,0,reading,PROBE_COUNT_OK_2,71,2026-01-22 16:16:50.768042,41.657175,0.516851,16.048193,slot#2,NaN,,,keyboard,probe_digit#2,"{""value"":""slot#2"",""entered"":null,""rt"":16.048192900139838,""note"":""probe_digit#2""}",0,0.004164,240.181616,1
Sergio_G01_CNS-LLF5HT7Y0,S01,OFFmed_OFFstim,20260122_161604,2026-01-22 16:16:08.647137,1,0,reading,DIGIT_READ2_OFF,212,2026-01-22 16:16:50.870784,42.174026,0.000000,,1,,,,keyboard,digit#2 off,"{""value"":1,""note"":""digit#2 off"",""pd_used"":0}",0,0.004164,240.181616,1
Sergio_G01_CNS-LLF5HT7Y0,S01,OFFmed_OFFstim,20260122_161604,2026-01-22 16:16:08.647137,1,0,reading,POSTREAD_FIX2_ON,232,2026-01-22 16:16:50.874711,42.174026,1.685336,,,,,,keyboard,after digit#2,"{""note"":""after digit#2""}",0,0.004164,240.181616,1
Sergio_G01_CNS-LLF5HT7Y0,S01,OFFmed_OFFstim,20260122_161604,2026-01-22 16:16:08.647137,1,0,reading,POSTREAD_FIX2_OFF,242,2026-01-22 16:16:52.550763,43.859362,0.055168,,,,,,keyboard,after digit#2,"{""note"":""after digit#2"",""pd_used"":0}",0,0.004164,240.181616,1
Sergio_G01_CNS-LLF5HT7Y0,S01,OFFmed_OFFstim,20260122_161604,2026-01-22 16:16:08.647137,1,0,reading,DIGIT_READ3_ON,203,2026-01-22 16:16:52.606273,43.914530,0.927569,,3,,,,keyboard,digit#3 shown,"{""value"":3,""note"":""digit#3 shown"",""pd_used"":1}",0,0.004164,240.181616,1
Sergio_G01_CNS-LLF5HT7Y0,S01,OFFmed_OFFstim,20260122_161604,2026-01-22 16:16:08.647137,1,0,reading,PROBE_COUNT_OK_3,71,2026-01-22 16:16:53.857983,44.842099,0.415811,19.233117,slot#3,NaN,,,keyboard,probe_digit#3,"{""value"":""slot#3"",""entered"":null,""rt"":19.233116500079632,""note"":""probe_digit#3""}",0,0.004164,240.181616,1
Sergio_G01_CNS-LLF5HT7Y0,S01,OFFmed_OFFstim,20260122_161604,2026-01-22 16:16:08.647137,1,0,reading,DIGIT_READ3_OFF,213,2026-01-22 16:16:53.956041,45.257909,0.000000,,3,,,,keyboard,digit#3 off,"{""value"":3,""note"":""digit#3 off"",""pd_used"":0}",0,0.004164,240.181616,1
Sergio_G01_CNS-LLF5HT7Y0,S01,OFFmed_OFFstim,20260122_161604,2026-01-22 16:16:08.647137,1,0,reading,POSTREAD_FIX3_ON,233,2026-01-22 16:16:53.958096,45.257909,1.717261,,,,,,keyboard,after digit#3,"{""note"":""after digit#3""}",0,0.004164,240.181616,1
Sergio_G01_CNS-LLF5HT7Y0,S01,OFFmed_OFFstim,20260122_161604,2026-01-22 16:16:08.647137,1,0,reading,POSTREAD_FIX3_OFF,243,2026-01-22 16:16:55.666832,46.975170,0.056426,,,,,,keyboard,after digit#3,"{""note"":""after digit#3"",""pd_used"":0}",0,0.004164,240.181616,1
Sergio_G01_CNS-LLF5HT7Y0,S01,OFFmed_OFFstim,20260122_161604,2026-01-22 16:16:08.647137,1,0,reading,DIGIT_READ4_ON,204,2026-01-22 16:16:55.722615,47.031596,0.931013,,6,,,,keyboard,digit#4 shown,"{""value"":6,""note"":""digit#4 shown"",""pd_used"":1}",0,0.004164,240.181616,1
Sergio_G01_CNS-LLF5HT7Y0,S01,OFFmed_OFFstim,20260122_161604,2026-01-22 16:16:08.647137,1,0,reading,PROBE_COUNT_OK_4,71,2026-01-22 16:16:56.978596,47.962608,0.418915,22.353626,slot#4,NaN,,,keyboard,probe_digit#4,"{""value"":""slot#4"",""entered"":null,""rt"":22.353626399999484,""note"":""probe_digit#4""}",0,0.004164,240.181616,1
Sergio_G01_CNS-LLF5HT7Y0,S01,OFFmed_OFFstim,20260122_161604,2026-01-22 16:16:08.647137,1,0,reading,DIGIT_READ4_OFF,214,2026-01-22 16:16:57.077674,48.381523,0.000000,,6,,,,keyboard,digit#4 off,"{""value"":6,""note"":""digit#4 off"",""pd_used"":0}",0,0.004164,240.181616,1
Sergio_G01_CNS-LLF5HT7Y0,S01,OFFmed_OFFstim,20260122_161604,2026-01-22 16:16:08.647137,1,0,reading,POSTREAD_FIX4_ON,234,2026-01-22 16:16:57.080331,48.381523,1.578998,,,,,,keyboard,after digit#4,"{""note"":""after digit#4""}",0,0.004164,240.181616,1
Sergio_G01_CNS-LLF5HT7Y0,S01,OFFmed_OFFstim,20260122_161604,2026-01-22 16:16:08.647137,1,0,reading,POSTREAD_FIX4_OFF,244,2026-01-22 16:16:58.651962,49.960521,0.055486,,,,,,keyboard,after digit#4,"{""note"":""after digit#4"",""pd_used"":0}",0,0.004164,240.181616,1
Sergio_G01_CNS-LLF5HT7Y0,S01,OFFmed_OFFstim,20260122_161604,2026-01-22 16:16:08.647137,1,0,reading,DIGIT_READ5_ON,205,2026-01-22 16:16:58.707384,50.016007,0.820944,,9,,,,keyboard,digit#5 shown,"{""value"":9,""note"":""digit#5 shown"",""pd_used"":1}",0,0.004164,240.181616,1
Sergio_G01_CNS-LLF5HT7Y0,S01,OFFmed_OFFstim,20260122_161604,2026-01-22 16:16:08.647137,1,0,reading,PROBE_COUNT_OK_5,71,2026-01-22 16:16:59.992288,50.836951,0.564797,25.227969,slot#5,NaN,,,keyboard,probe_digit#5,"{""value"":""slot#5"",""entered"":null,""rt"":25.227969100000337,""note"":""probe_digit#5""}",0,0.004164,240.181616,1
Sergio_G01_CNS-LLF5HT7Y0,S01,OFFmed_OFFstim,20260122_161604,2026-01-22 16:16:08.647137,1,0,reading,DIGIT_READ5_OFF,215,2026-01-22 16:17:00.095295,51.401749,0.000000,,9,,,,keyboard,digit#5 off,"{""value"":9,""note"":""digit#5 off"",""pd_used"":0}",0,0.004164,240.181616,1
Sergio_G01_CNS-LLF5HT7Y0,S01,OFFmed_OFFstim,20260122_161604,2026-01-22 16:16:08.647137,1,0,reading,POSTREAD_FIX5_ON,235,2026-01-22 16:17:00.098913,51.401749,1.630664,,,,,,keyboard,after digit#5,"{""note"":""after digit#5""}",0,0.004164,240.181616,1
Sergio_G01_CNS-LLF5HT7Y0,S01,OFFmed_OFFstim,20260122_161604,2026-01-22 16:16:08.647137,1,0,reading,POSTREAD_FIX5_OFF,245,2026-01-22 16:17:01.723250,53.032413,0.056382,,,,,,keyboard,after digit#5,"{""note"":""after digit#5"",""pd_used"":0}",0,0.004164,240.181616,1
Sergio_G01_CNS-LLF5HT7Y0,S01,OFFmed_OFFstim,20260122_161604,2026-01-22 16:16:08.647137,1,0,reading,DIGIT_READ6_ON,206,2026-01-22 16:17:01.780020,53.088795,0.961174,,9,,,,keyboard,digit#6 shown,"{""value"":9,""note"":""digit#6 shown"",""pd_used"":1}",0,0.004164,240.181616,1
Sergio_G01_CNS-LLF5HT7Y0,S01,OFFmed_OFFstim,20260122_161604,2026-01-22 16:16:08.647137,1,0,reading,PROBE_COUNT_OK_6,71,2026-01-22 16:17:03.171542,54.049969,0.521737,28.440987,slot#6,NaN,,,keyboard,probe_digit#6,"{""value"":""slot#6"",""entered"":null,""rt"":28.440987100126222,""note"":""probe_digit#6""}",0,0.004164,240.181616,1
Sergio_G01_CNS-LLF5HT7Y0,S01,OFFmed_OFFstim,20260122_161604,2026-01-22 16:16:08.647137,1,0,reading,DIGIT_READ6_OFF,216,2026-01-22 16:17:03.270181,54.571707,0.000000,,9,,,,keyboard,digit#6 off,"{""value"":9,""note"":""digit#6 off"",""pd_used"":0}",0,0.004164,240.181616,1
Sergio_G01_CNS-LLF5HT7Y0,S01,OFFmed_OFFstim,20260122_161604,2026-01-22 16:16:08.647137,1,0,reading,POSTREAD_FIX6_ON,236,2026-01-22 16:17:03.272325,54.571707,1.828465,,,,,,keyboard,after digit#6,"{""note"":""after digit#6""}",0,0.004164,240.181616,1
Sergio_G01_CNS-LLF5HT7Y0,S01,OFFmed_OFFstim,20260122_161604,2026-01-22 16:16:08.647137,1,0,reading,POSTREAD_FIX6_OFF,246,2026-01-22 16:17:05.089998,56.400172,0.056949,,,,,,keyboard,after digit#6,"{""note"":""after digit#6"",""pd_used"":0}",0,0.004164,240.181616,1
Sergio_G01_CNS-LLF5HT7Y0,S01,OFFmed_OFFstim,20260122_161604,2026-01-22 16:16:08.647137,1,0,reading,DIGIT_READ7_ON,207,2026-01-22 16:17:05.147509,56.457121,0.765088,,3,,,,keyboard,digit#7 shown,"{""value"":3,""note"":""digit#7 shown"",""pd_used"":1}",0,0.004164,240.181616,1
Sergio_G01_CNS-LLF5HT7Y0,S01,OFFmed_OFFstim,20260122_161604,2026-01-22 16:16:08.647137,1,0,reading,PROBE_COUNT_OK_7,71,2026-01-22 16:17:06.301104,57.222209,0.478791,31.613227,slot#7,NaN,,,keyboard,probe_digit#7,"{""value"":""slot#7"",""entered"":null,""rt"":31.6132267001085,""note"":""probe_digit#7""}",0,0.004164,240.181616,1
Sergio_G01_CNS-LLF5HT7Y0,S01,OFFmed_OFFstim,20260122_161604,2026-01-22 16:16:08.647137,1,0,reading,DIGIT_READ7_OFF,217,2026-01-22 16:17:06.400759,57.701000,0.000000,,3,,,,keyboard,digit#7 off,"{""value"":3,""note"":""digit#7 off"",""pd_used"":0}",0,0.004164,240.181616,1
Sergio_G01_CNS-LLF5HT7Y0,S01,OFFmed_OFFstim,20260122_161604,2026-01-22 16:16:08.647137,1,0,reading,POSTREAD_FIX7_ON,237,2026-01-22 16:17:06.401807,57.701000,1.596898,,,,,,keyboard,after digit#7,"{""note"":""after digit#7""}",0,0.004164,240.181616,1
Sergio_G01_CNS-LLF5HT7Y0,S01,OFFmed_OFFstim,20260122_161604,2026-01-22 16:16:08.647137,1,0,reading,POSTREAD_FIX7_OFF,247,2026-01-22 16:17:07.988456,59.297899,0.058161,,,,,,keyboard,after digit#7,"{""note"":""after digit#7"",""pd_used"":0}",0,0.004164,240.181616,1
Sergio_G01_CNS-LLF5HT7Y0,S01,OFFmed_OFFstim,20260122_161604,2026-01-22 16:16:08.647137,1,0,reading,DIGIT_READ8_ON,208,2026-01-22 16:17:08.047000,59.356060,0.894859,,2,,,,keyboard,digit#8 shown,"{""value"":2,""note"":""digit#8 shown"",""pd_used"":1}",0,0.004164,240.181616,1
Sergio_G01_CNS-LLF5HT7Y0,S01,OFFmed_OFFstim,20260122_161604,2026-01-22 16:16:08.647137,1,0,reading,PROBE_COUNT_OK_8,71,2026-01-22 16:17:09.341822,60.250919,0.492086,34.641937,slot#8,NaN,,,keyboard,probe_digit#8,"{""value"":""slot#8"",""entered"":null,""rt"":34.6419369999785,""note"":""probe_digit#8""}",0,0.004164,240.181616,1
Sergio_G01_CNS-LLF5HT7Y0,S01,OFFmed_OFFstim,20260122_161604,2026-01-22 16:16:08.647137,1,0,reading,DIGIT_READ8_OFF,218,2026-01-22 16:17:09.442484,60.743005,0.000000,,2,,,,keyboard,digit#8 off,"{""value"":2,""note"":""digit#8 off"",""pd_used"":0}",0,0.004164,240.181616,1
Sergio_G01_CNS-LLF5HT7Y0,S01,OFFmed_OFFstim,20260122_161604,2026-01-22 16:16:08.647137,1,0,reading,POSTREAD_FIX8_ON,238,2026-01-22 16:17:09.444733,60.743005,1.785523,,,,,,keyboard,after digit#8,"{""note"":""after digit#8""}",0,0.004164,240.181616,1
Sergio_G01_CNS-LLF5HT7Y0,S01,OFFmed_OFFstim,20260122_161604,2026-01-22 16:16:08.647137,1,0,reading,POSTREAD_FIX8_OFF,248,2026-01-22 16:17:11.219417,62.528528,0.055555,,,,,,keyboard,after digit#8,"{""note"":""after digit#8"",""pd_used"":0}",0,0.004164,240.181616,1
Sergio_G01_CNS-LLF5HT7Y0,S01,OFFmed_OFFstim,20260122_161604,2026-01-22 16:16:08.647137,1,0,reading,DIGIT_READ9_ON,209,2026-01-22 16:17:11.274693,62.584083,1.070230,,3,,,,keyboard,digit#9 shown,"{""value"":3,""note"":""digit#9 shown"",""pd_used"":1}",0,0.004164,240.181616,1
Sergio_G01_CNS-LLF5HT7Y0,S01,OFFmed_OFFstim,20260122_161604,2026-01-22 16:16:08.647137,1,0,reading,PROBE_COUNT_OK_9,71,2026-01-22 16:17:12.742241,63.654313,0.488898,38.045330,slot#9,NaN,,,keyboard,probe_digit#9,"{""value"":""slot#9"",""entered"":null,""rt"":38.045330499997362,""note"":""probe_digit#9""}",0,0.004164,240.181616,1
Sergio_G01_CNS-LLF5HT7Y0,S01,OFFmed_OFFstim,20260122_161604,2026-01-22 16:16:08.647137,1,0,reading,DIGIT_READ9_OFF,219,2026-01-22 16:17:12.841943,64.143211,0.000000,,3,,,,keyboard,digit#9 off,"{""value"":3,""note"":""digit#9 off"",""pd_used"":0}",0,0.004164,240.181616,1
Sergio_G01_CNS-LLF5HT7Y0,S01,OFFmed_OFFstim,20260122_161604,2026-01-22 16:16:08.647137,1,0,reading,POSTREAD_FIX9_ON,239,2026-01-22 16:17:12.844179,64.143211,1.692198,,,,,,keyboard,after digit#9,"{""note"":""after digit#9""}",0,0.004164,240.181616,1
Sergio_G01_CNS-LLF5HT7Y0,S01,OFFmed_OFFstim,20260122_161604,2026-01-22 16:16:08.647137,1,0,reading,POSTREAD_FIX9_OFF,249,2026-01-22 16:17:14.526105,65.835408,0.055328,,,,,,keyboard,after digit#9,"{""note"":""after digit#9"",""pd_used"":0}",0,0.004164,240.181616,1
Sergio_G01_CNS-LLF5HT7Y0,S01,OFFmed_OFFstim,20260122_161604,2026-01-22 16:16:08.647137,1,0,reading,DIGIT_READ10_ON,210,2026-01-22 16:17:14.581101,65.890736,0.868360,,0,,,,keyboard,digit#10 shown,"{""value"":0,""note"":""digit#10 shown"",""pd_used"":1}",0,0.004164,240.181616,1
Sergio_G01_CNS-LLF5HT7Y0,S01,OFFmed_OFFstim,20260122_161604,2026-01-22 16:16:08.647137,1,0,reading,PROBE_COUNT_OK_10,71,2026-01-22 16:17:15.969384,66.759095,0.610857,41.150113,slot#10,NaN,,,keyboard,probe_digit#10,"{""value"":""slot#10"",""entered"":null,""rt"":41.150113200070336,""note"":""probe_digit#10""}",0,0.004164,240.181616,1
Sergio_G01_CNS-LLF5HT7Y0,S01,OFFmed_OFFstim,20260122_161604,2026-01-22 16:16:08.647137,1,0,reading,DIGIT_READ10_OFF,220,2026-01-22 16:17:16.069682,67.369952,0.000000,,0,,,,keyboard,digit#10 off,"{""value"":0,""note"":""digit#10 off"",""pd_used"":0}",0,0.004164,240.181616,1
Sergio_G01_CNS-LLF5HT7Y0,S01,OFFmed_OFFstim,20260122_161604,2026-01-22 16:16:08.647137,1,0,reading,POSTREAD_FIX10_ON,240,2026-01-22 16:17:16.071945,67.369952,3.270998,,,,,,keyboard,after digit#10,"{""note"":""after digit#10""}",0,0.004164,240.181616,1
Sergio_G01_CNS-LLF5HT7Y0,S01,OFFmed_OFFstim,20260122_161604,2026-01-22 16:16:08.647137,1,0,reading,POSTREAD_FIX10_OFF,250,2026-01-22 16:17:19.331913,70.640950,0.047030,,,,,,keyboard,after digit#10,"{""note"":""after digit#10"",""pd_used"":0}",0,0.004164,240.181616,1
Sergio_G01_CNS-LLF5HT7Y0,S01,OFFmed_OFFstim,20260122_161604,2026-01-22 16:16:08.647137,1,0,reading,CONTROL_END,24,2026-01-22 16:17:19.335041,70.687980,0.058241,,,,,,keyboard,,{},0,0.004164,240.181616,1
Sergio_G01_CNS-LLF5HT7Y0,S01,OFFmed_OFFstim,20260122_161604,2026-01-22 16:16:08.647137,1,0,reading,START_PAGE_ON,4,2026-01-22 16:17:19.436766,70.746221,0.048191,,,,,,keyboard,,"{""pd_used"":0}",0,0.004164,240.181616,1
Sergio_G01_CNS-LLF5HT7Y0,S01,OFFmed_OFFstim,20260122_161604,2026-01-22 16:16:08.647137,1,0,reading,START_PAGE_ON,4,2026-01-22 16:17:19.436766,70.746221,2.123939,,,,,,keyboard,,"{""pd_used"":0}",0,0.004164,240.181616,1
Sergio_G01_CNS-LLF5HT7Y0,S01,OFFmed_OFFstim,20260122_161604,2026-01-22 16:16:08.647137,1,0,reading,START_PAGE_ON,4,2026-01-22 16:17:19.436766,70.746221,2.473377,,,,,,keyboard,,"{""pd_used"":0}",0,0.004164,240.181616,1
Sergio_G01_CNS-LLF5HT7Y0,S01,OFFmed_OFFstim,20260122_161604,2026-01-22 16:16:08.647137,1,0,reading,SESSION_START,1,2026-01-22 16:17:21.867420,73.219598,0.023740,,,,,,keyboard,,{},0,0.004164,240.181616,1
Sergio_G01_CNS-LLF5HT7Y0,S01,OFFmed_OFFstim,20260122_161604,2026-01-22 16:16:08.647137,1,1,reading,TRIAL_CHANGE,22,2026-01-22 16:17:21.891134,73.243338,0.002538,,,,,,keyboard,trial transition,"{""note"":""trial transition""}",0,0.004164,240.181616,1
Sergio_G01_CNS-LLF5HT7Y0,S01,OFFmed_OFFstim,20260122_161604,2026-01-22 16:16:08.647137,1,1,reading,TRIAL_START,20,2026-01-22 16:17:21.893406,73.245876,0.053458,,,,,,keyboard,,{},0,0.004164,240.181616,1
Sergio_G01_CNS-LLF5HT7Y0,S01,OFFmed_OFFstim,20260122_161604,2026-01-22 16:16:08.647137,1,1,fix1,FIX1_ON,30,2026-01-22 16:17:21.998622,73.299334,3.269756,,,,,,keyboard,,"{""pd_used"":0}",0,0.004164,240.181616,1
Sergio_G01_CNS-LLF5HT7Y0,S01,OFFmed_OFFstim,20260122_161604,2026-01-22 16:16:08.647137,1,1,fix1,FIX1_OFF,31,2026-01-22 16:17:25.260431,76.569089,0.049447,,,,,,keyboard,,"{""pd_used"":0}",0,0.004164,240.181616,1
Sergio_G01_CNS-LLF5HT7Y0,S01,OFFmed_OFFstim,20260122_161604,2026-01-22 16:16:08.647137,1,1,digit,DIGIT1_ON,141,2026-01-22 16:17:25.313520,76.618536,0.552454,,2,,,,keyboard,digit#1 shown,"{""value"":2,""note"":""digit#1 shown"",""pd_used"":1}",0,0.004164,240.181616,1
Sergio_G01_CNS-LLF5HT7Y0,S01,OFFmed_OFFstim,20260122_161604,2026-01-22 16:16:08.647137,1,1,digit,DIGIT1_OFF,146,2026-01-22 16:17:25.861612,77.170991,0.000000,,2,,,,keyboard,digit#1 off,"{""value"":2,""note"":""digit#1 off"",""pd_used"":0}",0,0.004164,240.181616,1
Sergio_G01_CNS-LLF5HT7Y0,S01,OFFmed_OFFstim,20260122_161604,2026-01-22 16:16:08.647137,1,1,digit,POSTDIG_FIX1_ON,151,2026-01-22 16:17:25.863994,77.170991,1.630128,,,,,,keyboard,after digit#1,"{""note"":""after digit#1""}",0,0.004164,240.181616,1
Sergio_G01_CNS-LLF5HT7Y0,S01,OFFmed_OFFstim,20260122_161604,2026-01-22 16:16:08.647137,1,1,digit,POSTDIG_FIX1_OFF,156,2026-01-22 16:17:27.493451,78.801119,0.052076,,,,,,keyboard,after digit#1,"{""note"":""after digit#1"",""pd_used"":0}",0,0.004164,240.181616,1
Sergio_G01_CNS-LLF5HT7Y0,S01,OFFmed_OFFstim,20260122_161604,2026-01-22 16:16:08.647137,1,1,digit,DIGIT2_ON,142,2026-01-22 16:17:27.546821,78.853195,0.551250,,7,,,,keyboard,digit#2 shown,"{""value"":7,""note"":""digit#2 shown"",""pd_used"":1}",0,0.004164,240.181616,1
Sergio_G01_CNS-LLF5HT7Y0,S01,OFFmed_OFFstim,20260122_161604,2026-01-22 16:16:08.647137,1,1,digit,DIGIT2_OFF,147,2026-01-22 16:17:28.095835,79.404445,0.000000,,7,,,,keyboard,digit#2 off,"{""value"":7,""note"":""digit#2 off"",""pd_used"":0}",0,0.004164,240.181616,1
Sergio_G01_CNS-LLF5HT7Y0,S01,OFFmed_OFFstim,20260122_161604,2026-01-22 16:16:08.647137,1,1,digit,POSTDIG_FIX2_ON,152,2026-01-22 16:17:28.098075,79.404445,1.826667,,,,,,keyboard,after digit#2,"{""note"":""after digit#2""}",0,0.004164,240.181616,1
Sergio_G01_CNS-LLF5HT7Y0,S01,OFFmed_OFFstim,20260122_161604,2026-01-22 16:16:08.647137,1,1,digit,POSTDIG_FIX2_OFF,157,2026-01-22 16:17:29.921810,81.231113,0.047822,,,,,,keyboard,after digit#2,"{""note"":""after digit#2"",""pd_used"":0}",0,0.004164,240.181616,1
Sergio_G01_CNS-LLF5HT7Y0,S01,OFFmed_OFFstim,20260122_161604,2026-01-22 16:16:08.647137,1,1,digit,DIGIT3_ON,143,2026-01-22 16:17:29.975204,81.278934,0.553366,,1,,,,keyboard,digit#3 shown,"{""value"":1,""note"":""digit#3 shown"",""pd_used"":1}",0,0.004164,240.181616,1
Sergio_G01_CNS-LLF5HT7Y0,S01,OFFmed_OFFstim,20260122_161604,2026-01-22 16:16:08.647137,1,1,digit,DIGIT3_OFF,148,2026-01-22 16:17:30.524196,81.832300,0.000000,,1,,,,keyboard,digit#3 off,"{""value"":1,""note"":""digit#3 off"",""pd_used"":0}",0,0.004164,240.181616,1
Sergio_G01_CNS-LLF5HT7Y0,S01,OFFmed_OFFstim,20260122_161604,2026-01-22 16:16:08.647137,1,1,digit,POSTDIG_FIX3_ON,153,2026-01-22 16:17:30.527251,81.832300,2.033151,,,,,,keyboard,after digit#3,"{""note"":""after digit#3""}",0,0.004164,240.181616,1
Sergio_G01_CNS-LLF5HT7Y0,S01,OFFmed_OFFstim,20260122_161604,2026-01-22 16:16:08.647137,1,1,digit,POSTDIG_FIX3_OFF,158,2026-01-22 16:17:32.557101,83.865451,0.049443,,,,,,keyboard,after digit#3,"{""note"":""after digit#3"",""pd_used"":0}",0,0.004164,240.181616,1
Sergio_G01_CNS-LLF5HT7Y0,S01,OFFmed_OFFstim,20260122_161604,2026-01-22 16:16:08.647137,1,1,digit,DIGIT4_ON,144,2026-01-22 16:17:32.610765,83.914894,0.553724,,7,,,,keyboard,digit#4 shown,"{""value"":7,""note"":""digit#4 shown"",""pd_used"":1}",0,0.004164,240.181616,1
Sergio_G01_CNS-LLF5HT7Y0,S01,OFFmed_OFFstim,20260122_161604,2026-01-22 16:16:08.647137,1,1,digit,DIGIT4_OFF,149,2026-01-22 16:17:33.160028,84.468618,0.000000,,7,,,,keyboard,digit#4 off,"{""value"":7,""note"":""digit#4 off"",""pd_used"":0}",0,0.004164,240.181616,1
Sergio_G01_CNS-LLF5HT7Y0,S01,OFFmed_OFFstim,20260122_161604,2026-01-22 16:16:08.647137,1,1,digit,POSTDIG_FIX4_ON,154,2026-01-22 16:17:33.162553,84.468618,1.830753,,,,,,keyboard,after digit#4,"{""note"":""after digit#4""}",0,0.004164,240.181616,1
Sergio_G01_CNS-LLF5HT7Y0,S01,OFFmed_OFFstim,20260122_161604,2026-01-22 16:16:08.647137,1,1,digit,POSTDIG_FIX4_OFF,159,2026-01-22 16:17:34.990188,86.299371,0.049143,,,,,,keyboard,after digit#4,"{""note"":""after digit#4"",""pd_used"":0}",0,0.004164,240.181616,1
Sergio_G01_CNS-LLF5HT7Y0,S01,OFFmed_OFFstim,20260122_161604,2026-01-22 16:16:08.647137,1,1,digit,DIGIT5_ON,145,2026-01-22 16:17:35.043428,86.348514,0.553713,,0,,,,keyboard,digit#5 shown,"{""value"":0,""note"":""digit#5 shown"",""pd_used"":1}",0,0.004164,240.181616,1
Sergio_G01_CNS-LLF5HT7Y0,S01,OFFmed_OFFstim,20260122_161604,2026-01-22 16:16:08.647137,1,1,digit,DIGIT5_OFF,150,2026-01-22 16:17:35.593968,86.902227,0.000000,,0,,,,keyboard,digit#5 off,"{""value"":0,""note"":""digit#5 off"",""pd_used"":0}",0,0.004164,240.181616,1
Sergio_G01_CNS-LLF5HT7Y0,S01,OFFmed_OFFstim,20260122_161604,2026-01-22 16:16:08.647137,1,1,digit,POSTDIG_FIX5_ON,155,2026-01-22 16:17:35.597653,86.902227,3.312871,,,,,,keyboard,after digit#5,"{""note"":""after digit#5""}",0,0.004164,240.181616,1
Sergio_G01_CNS-LLF5HT7Y0,S01,OFFmed_OFFstim,20260122_161604,2026-01-22 16:16:08.647137,1,1,digit,POSTDIG_FIX5_OFF,160,2026-01-22 16:17:38.905912,90.215098,0.057368,,,,,,keyboard,after digit#5,"{""note"":""after digit#5"",""pd_used"":0}",0,0.004164,240.181616,1
Sergio_G01_CNS-LLF5HT7Y0,S01,OFFmed_OFFstim,20260122_161604,2026-01-22 16:16:08.647137,1,1,distractor,DISTRACTOR_ON,50,2026-01-22 16:17:38.963432,90.272467,1.909565,,6+3=9,,,,keyboard,,"{""value"":""6+3=9"",""isCorrectTruth"":true,""trueSum"":9,""pd_used"":1}",0,0.004164,240.181616,1
Sergio_G01_CNS-LLF5HT7Y0,S01,OFFmed_OFFstim,20260122_161604,2026-01-22 16:16:08.647137,1,1,distractor,DISTRACTOR_ANS,51,2026-01-22 16:17:41.333120,92.182031,0.000000,1.909565,6+3=9,F,0,,keyboard,key= (False),"{""value"":""6+3=9"",""entered"":""F"",""rt"":1.9095646000932902,""correct"":0,""note"":""key= (False)"",""truth"":true,""trueSum"":9,""shownSum"":9,""a"":6,""b"":3}",0,0.004164,240.181616,1
Sergio_G01_CNS-LLF5HT7Y0,S01,OFFmed_OFFstim,20260122_161604,2026-01-22 16:16:08.647137,1,1,distractor,ANS_WRONG,101,2026-01-22 16:17:41.381765,92.182031,0.558542,,,,,,keyboard,,{},0,0.004164,240.181616,1
Sergio_G01_CNS-LLF5HT7Y0,S01,OFFmed_OFFstim,20260122_161604,2026-01-22 16:16:08.647137,1,1,distractor,DISTRACTOR_OFF,52,2026-01-22 16:17:41.434424,92.740573,0.000000,,,,,,keyboard,,"{""pd_used"":0}",0,0.004164,240.181616,1
Sergio_G01_CNS-LLF5HT7Y0,S01,OFFmed_OFFstim,20260122_161604,2026-01-22 16:16:08.647137,1,1,distractor,FIX2_ON,60,2026-01-22 16:17:41.436758,92.740573,3.229600,,,,,,keyboard,immediate after response,"{""note"":""immediate after response""}",0,0.004164,240.181616,1
Sergio_G01_CNS-LLF5HT7Y0,S01,OFFmed_OFFstim,20260122_161604,2026-01-22 16:16:08.647137,1,1,fix2,FIX2_OFF,61,2026-01-22 16:17:44.661609,95.970173,0.054672,,,,,,keyboard,,"{""pd_used"":0}",0,0.004164,240.181616,1
Sergio_G01_CNS-LLF5HT7Y0,S01,OFFmed_OFFstim,20260122_161604,2026-01-22 16:16:08.647137,1,1,probe,DIGIT_RECALL_LINE_1,161,2026-01-22 16:17:44.715848,96.024845,2.511892,,1,,,,keyboard,first recall question,"{""value"":1,""note"":""first recall question"",""pd_used"":1}",0,0.004164,240.181616,1
Sergio_G01_CNS-LLF5HT7Y0,S01,OFFmed_OFFstim,20260122_161604,2026-01-22 16:16:08.647137,1,1,probe,PROBE_DIGIT_OK_1,71,2026-01-22 16:17:47.709093,98.536737,0.573610,2.520284,slot#1,NaN,,,keyboard,probe_digit#1,"{""value"":""slot#1"",""entered"":null,""rt"":2.5202842999715358,""note"":""probe_digit#1""}",0,0.004164,240.181616,1
Sergio_G01_CNS-LLF5HT7Y0,S01,OFFmed_OFFstim,20260122_161604,2026-01-22 16:16:08.647137,1,1,probe,DIGIT1_OFF,146,2026-01-22 16:17:47.807789,99.110347,0.000000,,0,,,,keyboard,digit#1 off,"{""value"":0,""note"":""digit#1 off"",""pd_used"":0}",0,0.004164,240.181616,1
Sergio_G01_CNS-LLF5HT7Y0,S01,OFFmed_OFFstim,20260122_161604,2026-01-22 16:16:08.647137,1,1,probe,POSTDIG_FIX1_ON,151,2026-01-22 16:17:47.809968,99.110347,1.869917,,,,,,keyboard,after digit#1,"{""note"":""after digit#1""}",0,0.004164,240.181616,1
Sergio_G01_CNS-LLF5HT7Y0,S01,OFFmed_OFFstim,20260122_161604,2026-01-22 16:16:08.647137,1,1,probe,POSTDIG_FIX1_OFF,156,2026-01-22 16:17:49.671965,100.980264,0.056375,,,,,,keyboard,after digit#1,"{""note"":""after digit#1"",""pd_used"":0}",0,0.004164,240.181616,1
Sergio_G01_CNS-LLF5HT7Y0,S01,OFFmed_OFFstim,20260122_161604,2026-01-22 16:16:08.647137,1,1,probe,DIGIT_RECALL_LINE_2,162,2026-01-22 16:17:49.728059,101.036640,1.349883,,2,,,,keyboard,next recall question,"{""value"":2,""note"":""next recall question"",""pd_used"":1}",0,0.004164,240.181616,1
Sergio_G01_CNS-LLF5HT7Y0,S01,OFFmed_OFFstim,20260122_161604,2026-01-22 16:16:08.647137,1,1,probe,PROBE_DIGIT_OK_2,71,2026-01-22 16:17:51.505881,102.386522,0.520601,6.370069,slot#2,NaN,,,keyboard,probe_digit#2,"{""value"":""slot#2"",""entered"":null,""rt"":6.3700693000573665,""note"":""probe_digit#2""}",0,0.004164,240.181616,1
Sergio_G01_CNS-LLF5HT7Y0,S01,OFFmed_OFFstim,20260122_161604,2026-01-22 16:16:08.647137,1,1,probe,DIGIT2_OFF,147,2026-01-22 16:17:51.605936,102.907123,0.000000,,0,,,,keyboard,digit#2 off,"{""value"":0,""note"":""digit#2 off"",""pd_used"":0}",0,0.004164,240.181616,1
Sergio_G01_CNS-LLF5HT7Y0,S01,OFFmed_OFFstim,20260122_161604,2026-01-22 16:16:08.647137,1,1,probe,POSTDIG_FIX2_ON,152,2026-01-22 16:17:51.608751,102.907123,1.842574,,,,,,keyboard,after digit#2,"{""note"":""after digit#2""}",0,0.004164,240.181616,1
Sergio_G01_CNS-LLF5HT7Y0,S01,OFFmed_OFFstim,20260122_161604,2026-01-22 16:16:08.647137,1,1,probe,POSTDIG_FIX2_OFF,157,2026-01-22 16:17:53.440402,104.749697,0.055105,,,,,,keyboard,after digit#2,"{""note"":""after digit#2"",""pd_used"":0}",0,0.004164,240.181616,1
Sergio_G01_CNS-LLF5HT7Y0,S01,OFFmed_OFFstim,20260122_161604,2026-01-22 16:16:08.647137,1,1,probe,DIGIT_RECALL_LINE_3,163,2026-01-22 16:17:53.496134,104.804802,0.811125,,3,,,,keyboard,next recall question,"{""value"":3,""note"":""next recall question"",""pd_used"":1}",0,0.004164,240.181616,1
Sergio_G01_CNS-LLF5HT7Y0,S01,OFFmed_OFFstim,20260122_161604,2026-01-22 16:16:08.647137,1,1,probe,PROBE_DIGIT_OK_3,71,2026-01-22 16:17:54.742306,105.615927,0.527176,9.599474,slot#3,NaN,,,keyboard,probe_digit#3,"{""value"":""slot#3"",""entered"":null,""rt"":9.5994744999334216,""note"":""probe_digit#3""}",0,0.004164,240.181616,1
Sergio_G01_CNS-LLF5HT7Y0,S01,OFFmed_OFFstim,20260122_161604,2026-01-22 16:16:08.647137,1,1,probe,DIGIT3_OFF,148,2026-01-22 16:17:54.841806,106.143103,0.000000,,0,,,,keyboard,digit#3 off,"{""value"":0,""note"":""digit#3 off"",""pd_used"":0}",0,0.004164,240.181616,1
Sergio_G01_CNS-LLF5HT7Y0,S01,OFFmed_OFFstim,20260122_161604,2026-01-22 16:16:08.647137,1,1,probe,POSTDIG_FIX3_ON,153,2026-01-22 16:17:54.843333,106.143103,2.045867,,,,,,keyboard,after digit#3,"{""note"":""after digit#3""}",0,0.004164,240.181616,1
Sergio_G01_CNS-LLF5HT7Y0,S01,OFFmed_OFFstim,20260122_161604,2026-01-22 16:16:08.647137,1,1,probe,POSTDIG_FIX3_OFF,158,2026-01-22 16:17:56.880818,108.188970,0.056808,,,,,,keyboard,after digit#3,"{""note"":""after digit#3"",""pd_used"":0}",0,0.004164,240.181616,1
Sergio_G01_CNS-LLF5HT7Y0,S01,OFFmed_OFFstim,20260122_161604,2026-01-22 16:16:08.647137,1,1,probe,DIGIT_RECALL_LINE_4,164,2026-01-22 16:17:56.936951,108.245778,0.627815,,4,,,,keyboard,next recall question,"{""value"":4,""note"":""next recall question"",""pd_used"":1}",0,0.004164,240.181616,1
Sergio_G01_CNS-LLF5HT7Y0,S01,OFFmed_OFFstim,20260122_161604,2026-01-22 16:16:08.647137,1,1,probe,PROBE_DIGIT_OK_4,71,2026-01-22 16:17:58.026203,108.873593,0.554706,12.857140,slot#4,NaN,,,keyboard,probe_digit#4,"{""value"":""slot#4"",""entered"":null,""rt"":12.857140299864113,""note"":""probe_digit#4""}",0,0.004164,240.181616,1
Sergio_G01_CNS-LLF5HT7Y0,S01,OFFmed_OFFstim,20260122_161604,2026-01-22 16:16:08.647137,1,1,probe,DIGIT4_OFF,149,2026-01-22 16:17:58.126891,109.428299,0.000000,,0,,,,keyboard,digit#4 off,"{""value"":0,""note"":""digit#4 off"",""pd_used"":0}",0,0.004164,240.181616,1
Sergio_G01_CNS-LLF5HT7Y0,S01,OFFmed_OFFstim,20260122_161604,2026-01-22 16:16:08.647137,1,1,probe,POSTDIG_FIX4_ON,154,2026-01-22 16:17:58.129524,109.428299,1.785517,,,,,,keyboard,after digit#4,"{""note"":""after digit#4""}",0,0.004164,240.181616,1
Sergio_G01_CNS-LLF5HT7Y0,S01,OFFmed_OFFstim,20260122_161604,2026-01-22 16:16:08.647137,1,1,probe,POSTDIG_FIX4_OFF,159,2026-01-22 16:17:59.905461,111.213816,0.056375,,,,,,keyboard,after digit#4,"{""note"":""after digit#4"",""pd_used"":0}",0,0.004164,240.181616,1
Sergio_G01_CNS-LLF5HT7Y0,S01,OFFmed_OFFstim,20260122_161604,2026-01-22 16:16:08.647137,1,1,probe,DIGIT_RECALL_LINE_5,165,2026-01-22 16:17:59.960740,111.270191,0.744026,,5,,,,keyboard,next recall question,"{""value"":5,""note"":""next recall question"",""pd_used"":1}",0,0.004164,240.181616,1
Sergio_G01_CNS-LLF5HT7Y0,S01,OFFmed_OFFstim,20260122_161604,2026-01-22 16:16:08.647137,1,1,probe,PROBE_DIGIT_OK_5,71,2026-01-22 16:18:01.182256,112.014217,0.571816,15.997764,slot#5,NaN,,,keyboard,probe_digit#5,"{""value"":""slot#5"",""entered"":null,""rt"":15.997763799969107,""note"":""probe_digit#5""}",0,0.004164,240.181616,1
Sergio_G01_CNS-LLF5HT7Y0,S01,OFFmed_OFFstim,20260122_161604,2026-01-22 16:16:08.647137,1,1,probe,DIGIT5_OFF,150,2026-01-22 16:18:01.283125,112.586033,0.000000,,0,,,,keyboard,digit#5 off,"{""value"":0,""note"":""digit#5 off"",""pd_used"":0}",0,0.004164,240.181616,1
Sergio_G01_CNS-LLF5HT7Y0,S01,OFFmed_OFFstim,20260122_161604,2026-01-22 16:16:08.647137,1,1,probe,POSTDIG_FIX5_ON,155,2026-01-22 16:18:01.286516,112.586033,3.180191,,,,,,keyboard,after digit#5,"{""note"":""after digit#5""}",0,0.004164,240.181616,1
Sergio_G01_CNS-LLF5HT7Y0,S01,OFFmed_OFFstim,20260122_161604,2026-01-22 16:16:08.647137,1,1,probe,POSTDIG_FIX5_OFF,160,2026-01-22 16:18:04.457277,115.766224,0.052592,,,,,,keyboard,after digit#5,"{""note"":""after digit#5"",""pd_used"":0}",0,0.004164,240.181616,1
Sergio_G01_CNS-LLF5HT7Y0,S01,OFFmed_OFFstim,20260122_161604,2026-01-22 16:16:08.647137,1,1,probe,PROBE_DONE,73,2026-01-22 16:18:04.466480,115.818816,0.002587,,,,,,keyboard,probe complete,"{""value"":"""",""note"":""probe complete""}",0,0.004164,240.181616,1
Sergio_G01_CNS-LLF5HT7Y0,S01,OFFmed_OFFstim,20260122_161604,2026-01-22 16:16:08.647137,1,1,probe,TRIAL_END,21,2026-01-22 16:18:04.468844,115.821403,0.045357,,,,,,keyboard,,{},0,0.004164,240.181616,1
Sergio_G01_CNS-LLF5HT7Y0,S01,OFFmed_OFFstim,20260122_161604,2026-01-22 16:16:08.647137,1,2,probe,TRIAL_CHANGE,22,2026-01-22 16:18:04.514122,115.866761,0.001908,,,,,,keyboard,trial transition,"{""note"":""trial transition""}",0,0.004164,240.181616,1
Sergio_G01_CNS-LLF5HT7Y0,S01,OFFmed_OFFstim,20260122_161604,2026-01-22 16:16:08.647137,1,2,probe,TRIAL_START,20,2026-01-22 16:18:04.515895,115.868669,0.052846,,,,,,keyboard,,{},0,0.004164,240.181616,1
Sergio_G01_CNS-LLF5HT7Y0,S01,OFFmed_OFFstim,20260122_161604,2026-01-22 16:16:08.647137,1,2,fix1,FIX1_ON,30,2026-01-22 16:18:04.620020,115.921516,3.226262,,,,,,keyboard,,"{""pd_used"":0}",0,0.004164,240.181616,1
Sergio_G01_CNS-LLF5HT7Y0,S01,OFFmed_OFFstim,20260122_161604,2026-01-22 16:16:08.647137,1,2,fix1,FIX1_OFF,31,2026-01-22 16:18:07.838818,119.147778,0.048997,,,,,,keyboard,,"{""pd_used"":0}",0,0.004164,240.181616,1
Sergio_G01_CNS-LLF5HT7Y0,S01,OFFmed_OFFstim,20260122_161604,2026-01-22 16:16:08.647137,1,2,digit,DIGIT1_ON,141,2026-01-22 16:18:07.892125,119.196775,0.552217,,6,,,,keyboard,digit#1 shown,"{""value"":6,""note"":""digit#1 shown"",""pd_used"":1}",0,0.004164,240.181616,1
Sergio_G01_CNS-LLF5HT7Y0,S01,OFFmed_OFFstim,20260122_161604,2026-01-22 16:16:08.647137,1,2,digit,DIGIT1_OFF,146,2026-01-22 16:18:08.440071,119.748992,0.000000,,6,,,,keyboard,digit#1 off,"{""value"":6,""note"":""digit#1 off"",""pd_used"":0}",0,0.004164,240.181616,1
Sergio_G01_CNS-LLF5HT7Y0,S01,OFFmed_OFFstim,20260122_161604,2026-01-22 16:16:08.647137,1,2,digit,POSTDIG_FIX1_ON,151,2026-01-22 16:18:08.442065,119.748992,1.874141,,,,,,keyboard,after digit#1,"{""note"":""after digit#1""}",0,0.004164,240.181616,1
Sergio_G01_CNS-LLF5HT7Y0,S01,OFFmed_OFFstim,20260122_161604,2026-01-22 16:16:08.647137,1,2,digit,POSTDIG_FIX1_OFF,156,2026-01-22 16:18:10.314156,121.623132,0.047118,,,,,,keyboard,after digit#1,"{""note"":""after digit#1"",""pd_used"":0}",0,0.004164,240.181616,1
Sergio_G01_CNS-LLF5HT7Y0,S01,OFFmed_OFFstim,20260122_161604,2026-01-22 16:16:08.647137,1,2,digit,DIGIT2_ON,142,2026-01-22 16:18:10.367005,121.670250,0.552653,,2,,,,keyboard,digit#2 shown,"{""value"":2,""note"":""digit#2 shown"",""pd_used"":1}",0,0.004164,240.181616,1
Sergio_G01_CNS-LLF5HT7Y0,S01,OFFmed_OFFstim,20260122_161604,2026-01-22 16:16:08.647137,1,2,digit,DIGIT2_OFF,147,2026-01-22 16:18:10.913876,122.222903,0.000000,,2,,,,keyboard,digit#2 off,"{""value"":2,""note"":""digit#2 off"",""pd_used"":0}",0,0.004164,240.181616,1
Sergio_G01_CNS-LLF5HT7Y0,S01,OFFmed_OFFstim,20260122_161604,2026-01-22 16:16:08.647137,1,2,digit,POSTDIG_FIX2_ON,152,2026-01-22 16:18:10.915717,122.222903,1.579082,,,,,,keyboard,after digit#2,"{""note"":""after digit#2""}",0,0.004164,240.181616,1
Sergio_G01_CNS-LLF5HT7Y0,S01,OFFmed_OFFstim,20260122_161604,2026-01-22 16:16:08.647137,1,2,digit,POSTDIG_FIX2_OFF,157,2026-01-22 16:18:12.493942,123.801985,0.049706,,,,,,keyboard,after digit#2,"{""note"":""after digit#2"",""pd_used"":0}",0,0.004164,240.181616,1
Sergio_G01_CNS-LLF5HT7Y0,S01,OFFmed_OFFstim,20260122_161604,2026-01-22 16:16:08.647137,1,2,digit,DIGIT3_ON,143,2026-01-22 16:18:12.547431,123.851691,0.555268,,8,,,,keyboard,digit#3 shown,"{""value"":8,""note"":""digit#3 shown"",""pd_used"":1}",0,0.004164,240.181616,1
Sergio_G01_CNS-LLF5HT7Y0,S01,OFFmed_OFFstim,20260122_161604,2026-01-22 16:16:08.647137,1,2,digit,DIGIT3_OFF,148,2026-01-22 16:18:13.098840,124.406959,0.000000,,8,,,,keyboard,digit#3 off,"{""value"":8,""note"":""digit#3 off"",""pd_used"":0}",0,0.004164,240.181616,1
Sergio_G01_CNS-LLF5HT7Y0,S01,OFFmed_OFFstim,20260122_161604,2026-01-22 16:16:08.647137,1,2,digit,POSTDIG_FIX3_ON,153,2026-01-22 16:18:13.101111,124.406959,1.794747,,,,,,keyboard,after digit#3,"{""note"":""after digit#3""}",0,0.004164,240.181616,1
Sergio_G01_CNS-LLF5HT7Y0,S01,OFFmed_OFFstim,20260122_161604,2026-01-22 16:16:08.647137,1,2,digit,POSTDIG_FIX3_OFF,158,2026-01-22 16:18:14.891798,126.201706,0.046816,,,,,,keyboard,after digit#3,"{""note"":""after digit#3"",""pd_used"":0}",0,0.004164,240.181616,1
Sergio_G01_CNS-LLF5HT7Y0,S01,OFFmed_OFFstim,20260122_161604,2026-01-22 16:16:08.647137,1,2,digit,DIGIT4_ON,144,2026-01-22 16:18:14.945016,126.248522,0.553498,,7,,,,keyboard,digit#4 shown,"{""value"":7,""note"":""digit#4 shown"",""pd_used"":1}",0,0.004164,240.181616,1
Sergio_G01_CNS-LLF5HT7Y0,S01,OFFmed_OFFstim,20260122_161604,2026-01-22 16:16:08.647137,1,2,digit,DIGIT4_OFF,149,2026-01-22 16:18:15.493832,126.802020,0.000000,,7,,,,keyboard,digit#4 off,"{""value"":7,""note"":""digit#4 off"",""pd_used"":0}",0,0.004164,240.181616,1
Sergio_G01_CNS-LLF5HT7Y0,S01,OFFmed_OFFstim,20260122_161604,2026-01-22 16:16:08.647137,1,2,digit,POSTDIG_FIX4_ON,154,2026-01-22 16:18:15.496170,126.802020,2.035852,,,,,,keyboard,after digit#4,"{""note"":""after digit#4""}",0,0.004164,240.181616,1
Sergio_G01_CNS-LLF5HT7Y0,S01,OFFmed_OFFstim,20260122_161604,2026-01-22 16:16:08.647137,1,2,digit,POSTDIG_FIX4_OFF,159,2026-01-22 16:18:17.528869,128.837872,0.048176,,,,,,keyboard,after digit#4,"{""note"":""after digit#4"",""pd_used"":0}",0,0.004164,240.181616,1
Sergio_G01_CNS-LLF5HT7Y0,S01,OFFmed_OFFstim,20260122_161604,2026-01-22 16:16:08.647137,1,2,digit,DIGIT5_ON,145,2026-01-22 16:18:17.582807,128.886048,0.553778,,2,,,,keyboard,digit#5 shown,"{""value"":2,""note"":""digit#5 shown"",""pd_used"":1}",0,0.004164,240.181616,1
Sergio_G01_CNS-LLF5HT7Y0,S01,OFFmed_OFFstim,20260122_161604,2026-01-22 16:16:08.647137,1,2,digit,DIGIT5_OFF,150,2026-01-22 16:18:18.131200,129.439826,0.000000,,2,,,,keyboard,digit#5 off,"{""value"":2,""note"":""digit#5 off"",""pd_used"":0}",0,0.004164,240.181616,1
Sergio_G01_CNS-LLF5HT7Y0,S01,OFFmed_OFFstim,20260122_161604,2026-01-22 16:16:08.647137,1,2,digit,POSTDIG_FIX5_ON,155,2026-01-22 16:18:18.133458,129.439826,3.133328,,,,,,keyboard,after digit#5,"{""note"":""after digit#5""}",0,0.004164,240.181616,1
Sergio_G01_CNS-LLF5HT7Y0,S01,OFFmed_OFFstim,20260122_161604,2026-01-22 16:16:08.647137,1,2,digit,POSTDIG_FIX5_OFF,160,2026-01-22 16:18:21.263976,132.573154,0.050764,,,,,,keyboard,after digit#5,"{""note"":""after digit#5"",""pd_used"":0}",0,0.004164,240.181616,1
