file_version,subject,condition,session,task_start_time,block,trial,phase,event_name,event_code,wall_clock,t_rel_sec,duration_to_next,rt,value_shown,entered_value,correct,key_name,device,note,json,screen_index,ifi,refresh_hz,pd_used
Sergio_G01_CNS-LLF5HT7Y0,S01,OFFmed_OFFstim,20260202_164549,2026-02-02 16:45:57.070255,NaN,NaN,,MIC_TEST_START,6,2026-02-02 16:45:57.290431,0.216690,19.533242,,,,,,keyboard,,{},1,NaN,NaN,1
Sergio_G01_CNS-LLF5HT7Y0,S01,OFFmed_OFFstim,20260202_164549,2026-02-02 16:45:57.070255,NaN,NaN,,MIC_TEST_END,7,2026-02-02 16:46:16.820406,19.749932,2.412139,,,,,,keyboard,,{},1,NaN,NaN,1
Sergio_G01_CNS-LLF5HT7Y0,S01,OFFmed_OFFstim,20260202_164549,2026-02-02 16:45:57.070255,1,NaN,,BLOCK_START,10,2026-02-02 16:46:19.232509,22.162072,0.067890,,,,,,keyboard,,{},1,0.004162,240.255478,1
Sergio_G01_CNS-LLF5HT7Y0,S01,OFFmed_OFFstim,20260202_164549,2026-02-02 16:45:57.070255,1,0,reading,START_PAGE_ON,4,2026-02-02 16:46:19.343421,22.229962,0.048670,,,,,,keyboard,,"{""pd_used"":0}",1,0.004162,240.255478,1
Sergio_G01_CNS-LLF5HT7Y0,S01,OFFmed_OFFstim,20260202_164549,2026-02-02 16:45:57.070255,1,0,reading,START_PAGE_ON,4,2026-02-02 16:46:19.343421,22.229962,4.327974,,,,,,keyboard,,"{""pd_used"":0}",1,0.004162,240.255478,1
Sergio_G01_CNS-LLF5HT7Y0,S01,OFFmed_OFFstim,20260202_164549,2026-02-02 16:45:57.070255,1,0,reading,START_PAGE_ON,4,2026-02-02 16:46:19.343421,22.229962,4.703007,,,,,,keyboard,,"{""pd_used"":0}",1,0.004162,240.255478,1
Sergio_G01_CNS-LLF5HT7Y0,S01,OFFmed_OFFstim,20260202_164549,2026-02-02 16:45:57.070255,1,0,reading,READING_START,23,2026-02-02 16:46:24.003770,26.932968,0.059085,,,,,,keyboard,,{},1,0.004162,240.255478,1
Sergio_G01_CNS-LLF5HT7Y0,S01,OFFmed_OFFstim,20260202_164549,2026-02-02 16:45:57.070255,1,0,reading,DIGIT_READ1_ON,101,2026-02-02 16:46:24.112530,26.992053,0.917794,,1,,,,keyboard,digit#1 shown,"{""value"":1,""note"":""digit#1 shown"",""pd_used"":1}",1,0.004162,240.255478,1
Sergio_G01_CNS-LLF5HT7Y0,S01,OFFmed_OFFstim,20260202_164549,2026-02-02 16:45:57.070255,1,0,reading,PROBE_COUNT_OK_1,71,2026-02-02 16:46:25.434954,27.909847,0.506787,5.701973,slot#1,NaN,,,keyboard,probe_digit#1,"{""value"":""slot#1"",""entered"":null,""rt"":5.7019725000136532,""note"":""probe_digit#1""}",1,0.004162,240.255478,1
Sergio_G01_CNS-LLF5HT7Y0,S01,OFFmed_OFFstim,20260202_164549,2026-02-02 16:45:57.070255,1,0,reading,DIGIT_READ1_OFF,116,2026-02-02 16:46:25.537346,28.416634,0.000000,,1,,,,keyboard,digit#1 off,"{""value"":1,""note"":""digit#1 off"",""pd_used"":0}",1,0.004162,240.255478,1
Sergio_G01_CNS-LLF5HT7Y0,S01,OFFmed_OFFstim,20260202_164549,2026-02-02 16:45:57.070255,1,0,reading,POSTREAD_FIX1_ON,201,2026-02-02 16:46:25.540906,28.416634,1.754929,,,,,,keyboard,after digit#1,"{""note"":""after digit#1""}",1,0.004162,240.255478,1
Sergio_G01_CNS-LLF5HT7Y0,S01,OFFmed_OFFstim,20260202_164549,2026-02-02 16:45:57.070255,1,0,reading,POSTREAD_FIX1_OFF,216,2026-02-02 16:46:27.287902,30.171563,0.058944,,,,,,keyboard,after digit#1,"{""note"":""after digit#1"",""pd_used"":0}",1,0.004162,240.255478,1
Sergio_G01_CNS-LLF5HT7Y0,S01,OFFmed_OFFstim,20260202_164549,2026-02-02 16:45:57.070255,1,0,reading,DIGIT_READ2_ON,102,2026-02-02 16:46:27.345123,30.230507,0.786379,,1,,,,keyboard,digit#2 shown,"{""value"":1,""note"":""digit#2 shown"",""pd_used"":1}",1,0.004162,240.255478,1
Sergio_G01_CNS-LLF5HT7Y0,S01,OFFmed_OFFstim,20260202_164549,2026-02-02 16:45:57.070255,1,0,reading,PROBE_COUNT_OK_2,71,2026-02-02 16:46:28.582530,31.016885,0.545179,8.809011,slot#2,NaN,,,keyboard,probe_digit#2,"{""value"":""slot#2"",""entered"":null,""rt"":8.8090107000025455,""note"":""probe_digit#2""}",1,0.004162,240.255478,1
Sergio_G01_CNS-LLF5HT7Y0,S01,OFFmed_OFFstim,20260202_164549,2026-02-02 16:45:57.070255,1,0,reading,DIGIT_READ2_OFF,117,2026-02-02 16:46:28.683626,31.562065,0.000000,,1,,,,keyboard,digit#2 off,"{""value"":1,""note"":""digit#2 off"",""pd_used"":0}",1,0.004162,240.255478,1
Sergio_G01_CNS-LLF5HT7Y0,S01,OFFmed_OFFstim,20260202_164549,2026-02-02 16:45:57.070255,1,0,reading,POSTREAD_FIX2_ON,202,2026-02-02 16:46:28.685869,31.562065,1.819455,,,,,,keyboard,after digit#2,"{""note"":""after digit#2""}",1,0.004162,240.255478,1
Sergio_G01_CNS-LLF5HT7Y0,S01,OFFmed_OFFstim,20260202_164549,2026-02-02 16:45:57.070255,1,0,reading,POSTREAD_FIX2_OFF,217,2026-02-02 16:46:30.497276,33.381520,0.059096,,,,,,keyboard,after digit#2,"{""note"":""after digit#2"",""pd_used"":0}",1,0.004162,240.255478,1
Sergio_G01_CNS-LLF5HT7Y0,S01,OFFmed_OFFstim,20260202_164549,2026-02-02 16:45:57.070255,1,0,reading,DIGIT_READ3_ON,103,2026-02-02 16:46:30.556556,33.440616,0.720336,,4,,,,keyboard,digit#3 shown,"{""value"":4,""note"":""digit#3 shown"",""pd_used"":1}",1,0.004162,240.255478,1
Sergio_G01_CNS-LLF5HT7Y0,S01,OFFmed_OFFstim,20260202_164549,2026-02-02 16:45:57.070255,1,0,reading,PROBE_COUNT_OK_3,71,2026-02-02 16:46:31.644318,34.160952,0.463871,11.953077,slot#3,NaN,,,keyboard,probe_digit#3,"{""value"":""slot#3"",""entered"":null,""rt"":11.953077200014377,""note"":""probe_digit#3""}",1,0.004162,240.255478,1
Sergio_G01_CNS-LLF5HT7Y0,S01,OFFmed_OFFstim,20260202_164549,2026-02-02 16:45:57.070255,1,0,reading,DIGIT_READ3_OFF,118,2026-02-02 16:46:31.745800,34.624823,0.000000,,4,,,,keyboard,digit#3 off,"{""value"":4,""note"":""digit#3 off"",""pd_used"":0}",1,0.004162,240.255478,1
Sergio_G01_CNS-LLF5HT7Y0,S01,OFFmed_OFFstim,20260202_164549,2026-02-02 16:45:57.070255,1,0,reading,POSTREAD_FIX3_ON,203,2026-02-02 16:46:31.748079,34.624823,1.881540,,,,,,keyboard,after digit#3,"{""note"":""after digit#3""}",1,0.004162,240.255478,1
Sergio_G01_CNS-LLF5HT7Y0,S01,OFFmed_OFFstim,20260202_164549,2026-02-02 16:45:57.070255,1,0,reading,POSTREAD_FIX3_OFF,218,2026-02-02 16:46:33.622247,36.506363,0.059397,,,,,,keyboard,after digit#3,"{""note"":""after digit#3"",""pd_used"":0}",1,0.004162,240.255478,1
Sergio_G01_CNS-LLF5HT7Y0,S01,OFFmed_OFFstim,20260202_164549,2026-02-02 16:45:57.070255,1,0,reading,DIGIT_READ4_ON,104,2026-02-02 16:46:33.679847,36.565760,0.597655,,0,,,,keyboard,digit#4 shown,"{""value"":0,""note"":""digit#4 shown"",""pd_used"":1}",1,0.004162,240.255478,1
Sergio_G01_CNS-LLF5HT7Y0,S01,OFFmed_OFFstim,20260202_164549,2026-02-02 16:45:57.070255,1,0,reading,PROBE_COUNT_OK_4,71,2026-02-02 16:46:34.676300,37.163415,0.499233,14.955540,slot#4,NaN,,,keyboard,probe_digit#4,"{""value"":""slot#4"",""entered"":null,""rt"":14.955540300026769,""note"":""probe_digit#4""}",1,0.004162,240.255478,1
Sergio_G01_CNS-LLF5HT7Y0,S01,OFFmed_OFFstim,20260202_164549,2026-02-02 16:45:57.070255,1,0,reading,DIGIT_READ4_OFF,119,2026-02-02 16:46:34.780627,37.662648,0.000000,,0,,,,keyboard,digit#4 off,"{""value"":0,""note"":""digit#4 off"",""pd_used"":0}",1,0.004162,240.255478,1
Sergio_G01_CNS-LLF5HT7Y0,S01,OFFmed_OFFstim,20260202_164549,2026-02-02 16:45:57.070255,1,0,reading,POSTREAD_FIX4_ON,204,2026-02-02 16:46:34.783399,37.662648,1.702826,,,,,,keyboard,after digit#4,"{""note"":""after digit#4""}",1,0.004162,240.255478,1
Sergio_G01_CNS-LLF5HT7Y0,S01,OFFmed_OFFstim,20260202_164549,2026-02-02 16:45:57.070255,1,0,reading,POSTREAD_FIX4_OFF,219,2026-02-02 16:46:36.479398,39.365473,0.056543,,,,,,keyboard,after digit#4,"{""note"":""after digit#4"",""pd_used"":0}",1,0.004162,240.255478,1
Sergio_G01_CNS-LLF5HT7Y0,S01,OFFmed_OFFstim,20260202_164549,2026-02-02 16:45:57.070255,1,0,reading,DIGIT_READ5_ON,105,2026-02-02 16:46:36.538501,39.422017,0.645724,,2,,,,keyboard,digit#5 shown,"{""value"":2,""note"":""digit#5 shown"",""pd_used"":1}",1,0.004162,240.255478,1
Sergio_G01_CNS-LLF5HT7Y0,S01,OFFmed_OFFstim,20260202_164549,2026-02-02 16:45:57.070255,1,0,reading,PROBE_COUNT_OK_5,71,2026-02-02 16:46:37.463762,40.067740,0.378850,17.859866,slot#5,NaN,,,keyboard,probe_digit#5,"{""value"":""slot#5"",""entered"":null,""rt"":17.85986560001038,""note"":""probe_digit#5""}",1,0.004162,240.255478,1
Sergio_G01_CNS-LLF5HT7Y0,S01,OFFmed_OFFstim,20260202_164549,2026-02-02 16:45:57.070255,1,0,reading,DIGIT_READ5_OFF,120,2026-02-02 16:46:37.565990,40.446590,0.000000,,2,,,,keyboard,digit#5 off,"{""value"":2,""note"":""digit#5 off"",""pd_used"":0}",1,0.004162,240.255478,1
Sergio_G01_CNS-LLF5HT7Y0,S01,OFFmed_OFFstim,20260202_164549,2026-02-02 16:45:57.070255,1,0,reading,POSTREAD_FIX5_ON,205,2026-02-02 16:46:37.570387,40.446590,1.881737,,,,,,keyboard,after digit#5,"{""note"":""after digit#5""}",1,0.004162,240.255478,1
Sergio_G01_CNS-LLF5HT7Y0,S01,OFFmed_OFFstim,20260202_164549,2026-02-02 16:45:57.070255,1,0,reading,POSTREAD_FIX5_OFF,220,2026-02-02 16:46:39.443766,42.328327,0.058511,,,,,,keyboard,after digit#5,"{""note"":""after digit#5"",""pd_used"":0}",1,0.004162,240.255478,1
Sergio_G01_CNS-LLF5HT7Y0,S01,OFFmed_OFFstim,20260202_164549,2026-02-02 16:45:57.070255,1,0,reading,DIGIT_READ6_ON,106,2026-02-02 16:46:39.501773,42.386838,0.619162,,7,,,,keyboard,digit#6 shown,"{""value"":7,""note"":""digit#6 shown"",""pd_used"":1}",1,0.004162,240.255478,1
Sergio_G01_CNS-LLF5HT7Y0,S01,OFFmed_OFFstim,20260202_164549,2026-02-02 16:45:57.070255,1,0,reading,PROBE_COUNT_OK_6,71,2026-02-02 16:46:40.632315,43.006000,0.605246,20.798126,slot#6,NaN,,,keyboard,probe_digit#6,"{""value"":""slot#6"",""entered"":null,""rt"":20.798125500004971,""note"":""probe_digit#6""}",1,0.004162,240.255478,1
Sergio_G01_CNS-LLF5HT7Y0,S01,OFFmed_OFFstim,20260202_164549,2026-02-02 16:45:57.070255,1,0,reading,DIGIT_READ6_OFF,121,2026-02-02 16:46:40.733293,43.611246,0.000000,,7,,,,keyboard,digit#6 off,"{""value"":7,""note"":""digit#6 off"",""pd_used"":0}",1,0.004162,240.255478,1
Sergio_G01_CNS-LLF5HT7Y0,S01,OFFmed_OFFstim,20260202_164549,2026-02-02 16:45:57.070255,1,0,reading,POSTREAD_FIX6_ON,206,2026-02-02 16:46:40.735681,43.611246,1.871854,,,,,,keyboard,after digit#6,"{""note"":""after digit#6""}",1,0.004162,240.255478,1
Sergio_G01_CNS-LLF5HT7Y0,S01,OFFmed_OFFstim,20260202_164549,2026-02-02 16:45:57.070255,1,0,reading,POSTREAD_FIX6_OFF,221,2026-02-02 16:46:42.598844,45.483099,0.058409,,,,,,keyboard,after digit#6,"{""note"":""after digit#6"",""pd_used"":0}",1,0.004162,240.255478,1
Sergio_G01_CNS-LLF5HT7Y0,S01,OFFmed_OFFstim,20260202_164549,2026-02-02 16:45:57.070255,1,0,reading,DIGIT_READ7_ON,107,2026-02-02 16:46:42.656251,45.541508,0.601543,,0,,,,keyboard,digit#7 shown,"{""value"":0,""note"":""digit#7 shown"",""pd_used"":1}",1,0.004162,240.255478,1
Sergio_G01_CNS-LLF5HT7Y0,S01,OFFmed_OFFstim,20260202_164549,2026-02-02 16:45:57.070255,1,0,reading,PROBE_COUNT_OK_7,71,2026-02-02 16:46:43.595652,46.143051,0.432952,23.935176,slot#7,NaN,,,keyboard,probe_digit#7,"{""value"":""slot#7"",""entered"":null,""rt"":23.935176200000569,""note"":""probe_digit#7""}",1,0.004162,240.255478,1
Sergio_G01_CNS-LLF5HT7Y0,S01,OFFmed_OFFstim,20260202_164549,2026-02-02 16:45:57.070255,1,0,reading,DIGIT_READ7_OFF,122,2026-02-02 16:46:43.698240,46.576003,0.000000,,0,,,,keyboard,digit#7 off,"{""value"":0,""note"":""digit#7 off"",""pd_used"":0}",1,0.004162,240.255478,1
Sergio_G01_CNS-LLF5HT7Y0,S01,OFFmed_OFFstim,20260202_164549,2026-02-02 16:45:57.070255,1,0,reading,POSTREAD_FIX7_ON,207,2026-02-02 16:46:43.700754,46.576003,1.858664,,,,,,keyboard,after digit#7,"{""note"":""after digit#7""}",1,0.004162,240.255478,1
Sergio_G01_CNS-LLF5HT7Y0,S01,OFFmed_OFFstim,20260202_164549,2026-02-02 16:45:57.070255,1,0,reading,POSTREAD_FIX7_OFF,222,2026-02-02 16:46:45.550344,48.434667,0.059493,,,,,,keyboard,after digit#7,"{""note"":""after digit#7"",""pd_used"":0}",1,0.004162,240.255478,1
Sergio_G01_CNS-LLF5HT7Y0,S01,OFFmed_OFFstim,20260202_164549,2026-02-02 16:45:57.070255,1,0,reading,DIGIT_READ8_ON,108,2026-02-02 16:46:45.608798,48.494160,0.589292,,5,,,,keyboard,digit#8 shown,"{""value"":5,""note"":""digit#8 shown"",""pd_used"":1}",1,0.004162,240.255478,1
Sergio_G01_CNS-LLF5HT7Y0,S01,OFFmed_OFFstim,20260202_164549,2026-02-02 16:45:57.070255,1,0,reading,PROBE_COUNT_OK_8,71,2026-02-02 16:46:46.541203,49.083452,0.435740,26.875577,slot#8,NaN,,,keyboard,probe_digit#8,"{""value"":""slot#8"",""entered"":null,""rt"":26.87557740000193,""note"":""probe_digit#8""}",1,0.004162,240.255478,1
Sergio_G01_CNS-LLF5HT7Y0,S01,OFFmed_OFFstim,20260202_164549,2026-02-02 16:45:57.070255,1,0,reading,DIGIT_READ8_OFF,123,2026-02-02 16:46:46.642181,49.519192,0.000000,,5,,,,keyboard,digit#8 off,"{""value"":5,""note"":""digit#8 off"",""pd_used"":0}",1,0.004162,240.255478,1
Sergio_G01_CNS-LLF5HT7Y0,S01,OFFmed_OFFstim,20260202_164549,2026-02-02 16:45:57.070255,1,0,reading,POSTREAD_FIX8_ON,208,2026-02-02 16:46:46.645250,49.519192,1.598551,,,,,,keyboard,after digit#8,"{""note"":""after digit#8""}",1,0.004162,240.255478,1
Sergio_G01_CNS-LLF5HT7Y0,S01,OFFmed_OFFstim,20260202_164549,2026-02-02 16:45:57.070255,1,0,reading,POSTREAD_FIX8_OFF,223,2026-02-02 16:46:48.233832,51.117743,0.058886,,,,,,keyboard,after digit#8,"{""note"":""after digit#8"",""pd_used"":0}",1,0.004162,240.255478,1
Sergio_G01_CNS-LLF5HT7Y0,S01,OFFmed_OFFstim,20260202_164549,2026-02-02 16:45:57.070255,1,0,reading,DIGIT_READ9_ON,109,2026-02-02 16:46:48.293321,51.176629,0.683689,,4,,,,keyboard,digit#9 shown,"{""value"":4,""note"":""digit#9 shown"",""pd_used"":1}",1,0.004162,240.255478,1
Sergio_G01_CNS-LLF5HT7Y0,S01,OFFmed_OFFstim,20260202_164549,2026-02-02 16:45:57.070255,1,0,reading,PROBE_COUNT_OK_9,71,2026-02-02 16:46:49.433472,51.860317,0.552785,29.652443,slot#9,NaN,,,keyboard,probe_digit#9,"{""value"":""slot#9"",""entered"":null,""rt"":29.652442500024335,""note"":""probe_digit#9""}",1,0.004162,240.255478,1
Sergio_G01_CNS-LLF5HT7Y0,S01,OFFmed_OFFstim,20260202_164549,2026-02-02 16:45:57.070255,1,0,reading,DIGIT_READ9_OFF,124,2026-02-02 16:46:49.536057,52.413102,0.000000,,4,,,,keyboard,digit#9 off,"{""value"":4,""note"":""digit#9 off"",""pd_used"":0}",1,0.004162,240.255478,1
Sergio_G01_CNS-LLF5HT7Y0,S01,OFFmed_OFFstim,20260202_164549,2026-02-02 16:45:57.070255,1,0,reading,POSTREAD_FIX9_ON,209,2026-02-02 16:46:49.538557,52.413102,1.973942,,,,,,keyboard,after digit#9,"{""note"":""after digit#9""}",1,0.004162,240.255478,1
Sergio_G01_CNS-LLF5HT7Y0,S01,OFFmed_OFFstim,20260202_164549,2026-02-02 16:45:57.070255,1,0,reading,POSTREAD_FIX9_OFF,224,2026-02-02 16:46:51.502998,54.387044,0.058562,,,,,,keyboard,after digit#9,"{""note"":""after digit#9"",""pd_used"":0}",1,0.004162,240.255478,1
Sergio_G01_CNS-LLF5HT7Y0,S01,OFFmed_OFFstim,20260202_164549,2026-02-02 16:45:57.070255,1,0,reading,DIGIT_READ10_ON,110,2026-02-02 16:46:51.561673,54.445606,0.566334,,3,,,,keyboard,digit#10 shown,"{""value"":3,""note"":""digit#10 shown"",""pd_used"":1}",1,0.004162,240.255478,1
Sergio_G01_CNS-LLF5HT7Y0,S01,OFFmed_OFFstim,20260202_164549,2026-02-02 16:45:57.070255,1,0,reading,PROBE_COUNT_OK_10,71,2026-02-02 16:46:52.603707,55.011939,0.570628,32.804065,slot#10,NaN,,,keyboard,probe_digit#10,"{""value"":""slot#10"",""entered"":null,""rt"":32.804064600000856,""note"":""probe_digit#10""}",1,0.004162,240.255478,1
Sergio_G01_CNS-LLF5HT7Y0,S01,OFFmed_OFFstim,20260202_164549,2026-02-02 16:45:57.070255,1,0,reading,DIGIT_READ10_OFF,125,2026-02-02 16:46:52.706137,55.582567,0.000000,,3,,,,keyboard,digit#10 off,"{""value"":3,""note"":""digit#10 off"",""pd_used"":0}",1,0.004162,240.255478,1
Sergio_G01_CNS-LLF5HT7Y0,S01,OFFmed_OFFstim,20260202_164549,2026-02-02 16:45:57.070255,1,0,reading,POSTREAD_FIX10_ON,210,2026-02-02 16:46:52.708509,55.582567,3.170128,,,,,,keyboard,after digit#10,"{""note"":""after digit#10""}",1,0.004162,240.255478,1
Sergio_G01_CNS-LLF5HT7Y0,S01,OFFmed_OFFstim,20260202_164549,2026-02-02 16:45:57.070255,1,0,reading,POSTREAD_FIX10_OFF,225,2026-02-02 16:46:55.869189,58.752695,0.058852,,,,,,keyboard,after digit#10,"{""note"":""after digit#10"",""pd_used"":0}",1,0.004162,240.255478,1
Sergio_G01_CNS-LLF5HT7Y0,S01,OFFmed_OFFstim,20260202_164549,2026-02-02 16:45:57.070255,1,0,reading,DIGIT_READ11_ON,111,2026-02-02 16:46:55.927137,58.811548,0.482476,,9,,,,keyboard,digit#11 shown,"{""value"":9,""note"":""digit#11 shown"",""pd_used"":1}",1,0.004162,240.255478,1
Sergio_G01_CNS-LLF5HT7Y0,S01,OFFmed_OFFstim,20260202_164549,2026-02-02 16:45:57.070255,1,0,reading,PROBE_COUNT_OK_11,71,2026-02-02 16:46:56.932059,59.294024,0.618402,37.086149,slot#11,NaN,,,keyboard,probe_digit#11,"{""value"":""slot#11"",""entered"":null,""rt"":37.086148900008993,""note"":""probe_digit#11""}",1,0.004162,240.255478,1
Sergio_G01_CNS-LLF5HT7Y0,S01,OFFmed_OFFstim,20260202_164549,2026-02-02 16:45:57.070255,1,0,reading,DIGIT_READ11_OFF,126,2026-02-02 16:46:57.033998,59.912426,0.000000,,9,,,,keyboard,digit#11 off,"{""value"":9,""note"":""digit#11 off"",""pd_used"":0}",1,0.004162,240.255478,1
Sergio_G01_CNS-LLF5HT7Y0,S01,OFFmed_OFFstim,20260202_164549,2026-02-02 16:45:57.070255,1,0,reading,POSTREAD_FIX11_ON,211,2026-02-02 16:46:57.036390,59.912426,3.416526,,,,,,keyboard,after digit#11,"{""note"":""after digit#11""}",1,0.004162,240.255478,1
Sergio_G01_CNS-LLF5HT7Y0,S01,OFFmed_OFFstim,20260202_164549,2026-02-02 16:45:57.070255,1,0,reading,POSTREAD_FIX11_OFF,226,2026-02-02 16:47:00.445215,63.328952,0.060077,,,,,,keyboard,after digit#11,"{""note"":""after digit#11"",""pd_used"":0}",1,0.004162,240.255478,1
Sergio_G01_CNS-LLF5HT7Y0,S01,OFFmed_OFFstim,20260202_164549,2026-02-02 16:45:57.070255,1,0,reading,DIGIT_READ12_ON,112,2026-02-02 16:47:00.504957,63.389029,0.680015,,0,,,,keyboard,digit#12 shown,"{""value"":0,""note"":""digit#12 shown"",""pd_used"":1}",1,0.004162,240.255478,1
Sergio_G01_CNS-LLF5HT7Y0,S01,OFFmed_OFFstim,20260202_164549,2026-02-02 16:45:57.070255,1,0,reading,PROBE_COUNT_OK_12,71,2026-02-02 16:47:01.701859,64.069044,0.613192,41.861169,slot#12,NaN,,,keyboard,probe_digit#12,"{""value"":""slot#12"",""entered"":null,""rt"":41.861169200012228,""note"":""probe_digit#12""}",1,0.004162,240.255478,1
Sergio_G01_CNS-LLF5HT7Y0,S01,OFFmed_OFFstim,20260202_164549,2026-02-02 16:45:57.070255,1,0,reading,DIGIT_READ12_OFF,127,2026-02-02 16:47:01.805251,64.682236,0.000000,,0,,,,keyboard,digit#12 off,"{""value"":0,""note"":""digit#12 off"",""pd_used"":0}",1,0.004162,240.255478,1
Sergio_G01_CNS-LLF5HT7Y0,S01,OFFmed_OFFstim,20260202_164549,2026-02-02 16:45:57.070255,1,0,reading,POSTREAD_FIX12_ON,212,2026-02-02 16:47:01.807939,64.682236,3.152951,,,,,,keyboard,after digit#12,"{""note"":""after digit#12""}",1,0.004162,240.255478,1
Sergio_G01_CNS-LLF5HT7Y0,S01,OFFmed_OFFstim,20260202_164549,2026-02-02 16:45:57.070255,1,0,reading,POSTREAD_FIX12_OFF,227,2026-02-02 16:47:04.950840,67.835186,0.058673,,,,,,keyboard,after digit#12,"{""note"":""after digit#12"",""pd_used"":0}",1,0.004162,240.255478,1
Sergio_G01_CNS-LLF5HT7Y0,S01,OFFmed_OFFstim,20260202_164549,2026-02-02 16:45:57.070255,1,0,reading,DIGIT_READ13_ON,113,2026-02-02 16:47:05.010210,67.893859,0.569791,,8,,,,keyboard,digit#13 shown,"{""value"":8,""note"":""digit#13 shown"",""pd_used"":1}",1,0.004162,240.255478,1
Sergio_G01_CNS-LLF5HT7Y0,S01,OFFmed_OFFstim,20260202_164549,2026-02-02 16:45:57.070255,1,0,reading,PROBE_COUNT_OK_13,71,2026-02-02 16:47:06.003453,68.463651,0.518246,46.255776,slot#13,NaN,,,keyboard,probe_digit#13,"{""value"":""slot#13"",""entered"":null,""rt"":46.255775900004664,""note"":""probe_digit#13""}",1,0.004162,240.255478,1
Sergio_G01_CNS-LLF5HT7Y0,S01,OFFmed_OFFstim,20260202_164549,2026-02-02 16:45:57.070255,1,0,reading,DIGIT_READ13_OFF,128,2026-02-02 16:47:06.106042,68.981897,0.000000,,8,,,,keyboard,digit#13 off,"{""value"":8,""note"":""digit#13 off"",""pd_used"":0}",1,0.004162,240.255478,1
Sergio_G01_CNS-LLF5HT7Y0,S01,OFFmed_OFFstim,20260202_164549,2026-02-02 16:45:57.070255,1,0,reading,POSTREAD_FIX13_ON,213,2026-02-02 16:47:06.109030,68.981897,3.425824,,,,,,keyboard,after digit#13,"{""note"":""after digit#13""}",1,0.004162,240.255478,1
Sergio_G01_CNS-LLF5HT7Y0,S01,OFFmed_OFFstim,20260202_164549,2026-02-02 16:45:57.070255,1,0,reading,POSTREAD_FIX13_OFF,228,2026-02-02 16:47:09.524179,72.407721,0.058921,,,,,,keyboard,after digit#13,"{""note"":""after digit#13"",""pd_used"":0}",1,0.004162,240.255478,1
Sergio_G01_CNS-LLF5HT7Y0,S01,OFFmed_OFFstim,20260202_164549,2026-02-02 16:45:57.070255,1,0,reading,DIGIT_READ14_ON,114,2026-02-02 16:47:09.583298,72.466642,0.851028,,6,,,,keyboard,digit#14 shown,"{""value"":6,""note"":""digit#14 shown"",""pd_used"":1}",1,0.004162,240.255478,1
Sergio_G01_CNS-LLF5HT7Y0,S01,OFFmed_OFFstim,20260202_164549,2026-02-02 16:45:57.070255,1,0,reading,PROBE_COUNT_OK_14,71,2026-02-02 16:47:10.723138,73.317669,0.386163,51.109795,slot#14,NaN,,,keyboard,probe_digit#14,"{""value"":""slot#14"",""entered"":null,""rt"":51.109794600022724,""note"":""probe_digit#14""}",1,0.004162,240.255478,1
Sergio_G01_CNS-LLF5HT7Y0,S01,OFFmed_OFFstim,20260202_164549,2026-02-02 16:45:57.070255,1,0,reading,DIGIT_READ14_OFF,129,2026-02-02 16:47:10.825318,73.703833,0.000000,,6,,,,keyboard,digit#14 off,"{""value"":6,""note"":""digit#14 off"",""pd_used"":0}",1,0.004162,240.255478,1
Sergio_G01_CNS-LLF5HT7Y0,S01,OFFmed_OFFstim,20260202_164549,2026-02-02 16:45:57.070255,1,0,reading,POSTREAD_FIX14_ON,214,2026-02-02 16:47:10.827854,73.703833,3.504877,,,,,,keyboard,after digit#14,"{""note"":""after digit#14""}",1,0.004162,240.255478,1
Sergio_G01_CNS-LLF5HT7Y0,S01,OFFmed_OFFstim,20260202_164549,2026-02-02 16:45:57.070255,1,0,reading,POSTREAD_FIX14_OFF,229,2026-02-02 16:47:14.325182,77.208709,0.059265,,,,,,keyboard,after digit#14,"{""note"":""after digit#14"",""pd_used"":0}",1,0.004162,240.255478,1
Sergio_G01_CNS-LLF5HT7Y0,S01,OFFmed_OFFstim,20260202_164549,2026-02-02 16:45:57.070255,1,0,reading,DIGIT_READ15_ON,115,2026-02-02 16:47:14.384234,77.267975,0.604373,,4,,,,keyboard,digit#15 shown,"{""value"":4,""note"":""digit#15 shown"",""pd_used"":1}",1,0.004162,240.255478,1
Sergio_G01_CNS-LLF5HT7Y0,S01,OFFmed_OFFstim,20260202_164549,2026-02-02 16:45:57.070255,1,0,reading,PROBE_COUNT_OK_15,71,2026-02-02 16:47:15.432829,77.872347,0.539514,55.664473,slot#15,NaN,,,keyboard,probe_digit#15,"{""value"":""slot#15"",""entered"":null,""rt"":55.664472600008594,""note"":""probe_digit#15""}",1,0.004162,240.255478,1
Sergio_G01_CNS-LLF5HT7Y0,S01,OFFmed_OFFstim,20260202_164549,2026-02-02 16:45:57.070255,1,0,reading,DIGIT_READ15_OFF,130,2026-02-02 16:47:15.535589,78.411861,0.000000,,4,,,,keyboard,digit#15 off,"{""value"":4,""note"":""digit#15 off"",""pd_used"":0}",1,0.004162,240.255478,1
Sergio_G01_CNS-LLF5HT7Y0,S01,OFFmed_OFFstim,20260202_164549,2026-02-02 16:45:57.070255,1,0,reading,POSTREAD_FIX15_ON,215,2026-02-02 16:47:15.538465,78.411861,3.338839,,,,,,keyboard,after digit#15,"{""note"":""after digit#15""}",1,0.004162,240.255478,1
Sergio_G01_CNS-LLF5HT7Y0,S01,OFFmed_OFFstim,20260202_164549,2026-02-02 16:45:57.070255,1,0,reading,POSTREAD_FIX15_OFF,230,2026-02-02 16:47:18.866498,81.750700,0.052132,,,,,,keyboard,after digit#15,"{""note"":""after digit#15"",""pd_used"":0}",1,0.004162,240.255478,1
Sergio_G01_CNS-LLF5HT7Y0,S01,OFFmed_OFFstim,20260202_164549,2026-02-02 16:45:57.070255,1,0,reading,READING_END,24,2026-02-02 16:47:18.873402,81.802833,0.052554,,,,,,keyboard,,{},1,0.004162,240.255478,1
Sergio_G01_CNS-LLF5HT7Y0,S01,OFFmed_OFFstim,20260202_164549,2026-02-02 16:45:57.070255,1,0,reading,START_PAGE_ON,4,2026-02-02 16:47:18.975762,81.855386,0.056031,,,,,,keyboard,,"{""pd_used"":0}",1,0.004162,240.255478,1
Sergio_G01_CNS-LLF5HT7Y0,S01,OFFmed_OFFstim,20260202_164549,2026-02-02 16:45:57.070255,1,0,reading,START_PAGE_ON,4,2026-02-02 16:47:18.975762,81.855386,1.206482,,,,,,keyboard,,"{""pd_used"":0}",1,0.004162,240.255478,1
Sergio_G01_CNS-LLF5HT7Y0,S01,OFFmed_OFFstim,20260202_164549,2026-02-02 16:45:57.070255,1,0,reading,START_PAGE_ON,4,2026-02-02 16:47:18.975762,81.855386,1.558147,,,,,,keyboard,,"{""pd_used"":0}",1,0.004162,240.255478,1
Sergio_G01_CNS-LLF5HT7Y0,S01,OFFmed_OFFstim,20260202_164549,2026-02-02 16:45:57.070255,1,0,reading,SESSION_START,1,2026-02-02 16:47:20.484791,83.413533,0.024894,,,,,,keyboard,,{},1,0.004162,240.255478,1
Sergio_G01_CNS-LLF5HT7Y0,S01,OFFmed_OFFstim,20260202_164549,2026-02-02 16:45:57.070255,1,1,reading,TRIAL_CHANGE,22,2026-02-02 16:47:20.509278,83.438427,0.002639,,,,,,keyboard,trial transition,"{""note"":""trial transition""}",1,0.004162,240.255478,1
Sergio_G01_CNS-LLF5HT7Y0,S01,OFFmed_OFFstim,20260202_164549,2026-02-02 16:45:57.070255,1,1,reading,TRIAL_START,20,2026-02-02 16:47:20.511314,83.441066,0.053461,,,,,,keyboard,,{},1,0.004162,240.255478,1
Sergio_G01_CNS-LLF5HT7Y0,S01,OFFmed_OFFstim,20260202_164549,2026-02-02 16:45:57.070255,1,1,fix1,FIX1_ON,30,2026-02-02 16:47:20.616817,83.494527,3.402992,,,,,,keyboard,,"{""pd_used"":0}",1,0.004162,240.255478,1
Sergio_G01_CNS-LLF5HT7Y0,S01,OFFmed_OFFstim,20260202_164549,2026-02-02 16:45:57.070255,1,1,fix1,FIX1_OFF,31,2026-02-02 16:47:24.014671,86.897519,0.052602,,,,,,keyboard,,"{""pd_used"":0}",1,0.004162,240.255478,1
Sergio_G01_CNS-LLF5HT7Y0,S01,OFFmed_OFFstim,20260202_164549,2026-02-02 16:45:57.070255,1,1,digit,DIGIT1_ON,141,2026-02-02 16:47:24.068622,86.950121,0.555594,,6,,,,keyboard,digit#1 shown,"{""value"":6,""note"":""digit#1 shown"",""pd_used"":1}",1,0.004162,240.255478,1
Sergio_G01_CNS-LLF5HT7Y0,S01,OFFmed_OFFstim,20260202_164549,2026-02-02 16:45:57.070255,1,1,digit,DIGIT1_OFF,146,2026-02-02 16:47:24.622362,87.505716,0.000000,,6,,,,keyboard,digit#1 off,"{""value"":6,""note"":""digit#1 off"",""pd_used"":0}",1,0.004162,240.255478,1
Sergio_G01_CNS-LLF5HT7Y0,S01,OFFmed_OFFstim,20260202_164549,2026-02-02 16:45:57.070255,1,1,digit,POSTDIG_FIX1_ON,151,2026-02-02 16:47:24.625396,87.505716,1.728671,,,,,,keyboard,after digit#1,"{""note"":""after digit#1""}",1,0.004162,240.255478,1
Sergio_G01_CNS-LLF5HT7Y0,S01,OFFmed_OFFstim,20260202_164549,2026-02-02 16:45:57.070255,1,1,digit,POSTDIG_FIX1_OFF,156,2026-02-02 16:47:26.350111,89.234387,0.050861,,,,,,keyboard,after digit#1,"{""note"":""after digit#1"",""pd_used"":0}",1,0.004162,240.255478,1
Sergio_G01_CNS-LLF5HT7Y0,S01,OFFmed_OFFstim,20260202_164549,2026-02-02 16:45:57.070255,1,1,digit,DIGIT2_ON,142,2026-02-02 16:47:26.405318,89.285248,0.556195,,1,,,,keyboard,digit#2 shown,"{""value"":1,""note"":""digit#2 shown"",""pd_used"":1}",1,0.004162,240.255478,1
Sergio_G01_CNS-LLF5HT7Y0,S01,OFFmed_OFFstim,20260202_164549,2026-02-02 16:45:57.070255,1,1,digit,DIGIT2_OFF,147,2026-02-02 16:47:26.957877,89.841443,0.000000,,1,,,,keyboard,digit#2 off,"{""value"":1,""note"":""digit#2 off"",""pd_used"":0}",1,0.004162,240.255478,1
Sergio_G01_CNS-LLF5HT7Y0,S01,OFFmed_OFFstim,20260202_164549,2026-02-02 16:45:57.070255,1,1,digit,POSTDIG_FIX2_ON,152,2026-02-02 16:47:26.961123,89.841443,1.810907,,,,,,keyboard,after digit#2,"{""note"":""after digit#2""}",1,0.004162,240.255478,1
Sergio_G01_CNS-LLF5HT7Y0,S01,OFFmed_OFFstim,20260202_164549,2026-02-02 16:45:57.070255,1,1,digit,POSTDIG_FIX2_OFF,157,2026-02-02 16:47:28.768545,91.652350,0.051478,,,,,,keyboard,after digit#2,"{""note"":""after digit#2"",""pd_used"":0}",1,0.004162,240.255478,1
Sergio_G01_CNS-LLF5HT7Y0,S01,OFFmed_OFFstim,20260202_164549,2026-02-02 16:45:57.070255,1,1,digit,DIGIT3_ON,143,2026-02-02 16:47:28.822777,91.703828,0.556277,,2,,,,keyboard,digit#3 shown,"{""value"":2,""note"":""digit#3 shown"",""pd_used"":1}",1,0.004162,240.255478,1
Sergio_G01_CNS-LLF5HT7Y0,S01,OFFmed_OFFstim,20260202_164549,2026-02-02 16:45:57.070255,1,1,digit,DIGIT3_OFF,148,2026-02-02 16:47:29.375942,92.260105,0.000000,,2,,,,keyboard,digit#3 off,"{""value"":2,""note"":""digit#3 off"",""pd_used"":0}",1,0.004162,240.255478,1
Sergio_G01_CNS-LLF5HT7Y0,S01,OFFmed_OFFstim,20260202_164549,2026-02-02 16:45:57.070255,1,1,digit,POSTDIG_FIX3_ON,153,2026-02-02 16:47:29.378806,92.260105,1.925738,,,,,,keyboard,after digit#3,"{""note"":""after digit#3""}",1,0.004162,240.255478,1
Sergio_G01_CNS-LLF5HT7Y0,S01,OFFmed_OFFstim,20260202_164549,2026-02-02 16:45:57.070255,1,1,digit,POSTDIG_FIX3_OFF,158,2026-02-02 16:47:31.301273,94.185843,0.050897,,,,,,keyboard,after digit#3,"{""note"":""after digit#3"",""pd_used"":0}",1,0.004162,240.255478,1
Sergio_G01_CNS-LLF5HT7Y0,S01,OFFmed_OFFstim,20260202_164549,2026-02-02 16:45:57.070255,1,1,digit,DIGIT4_ON,144,2026-02-02 16:47:31.355686,94.236740,0.555987,,6,,,,keyboard,digit#4 shown,"{""value"":6,""note"":""digit#4 shown"",""pd_used"":1}",1,0.004162,240.255478,1
Sergio_G01_CNS-LLF5HT7Y0,S01,OFFmed_OFFstim,20260202_164549,2026-02-02 16:45:57.070255,1,1,digit,DIGIT4_OFF,149,2026-02-02 16:47:31.907884,94.792726,0.000000,,6,,,,keyboard,digit#4 off,"{""value"":6,""note"":""digit#4 off"",""pd_used"":0}",1,0.004162,240.255478,1
Sergio_G01_CNS-LLF5HT7Y0,S01,OFFmed_OFFstim,20260202_164549,2026-02-02 16:45:57.070255,1,1,digit,POSTDIG_FIX4_ON,154,2026-02-02 16:47:31.910538,94.792726,1.855805,,,,,,keyboard,after digit#4,"{""note"":""after digit#4""}",1,0.004162,240.255478,1
Sergio_G01_CNS-LLF5HT7Y0,S01,OFFmed_OFFstim,20260202_164549,2026-02-02 16:45:57.070255,1,1,digit,POSTDIG_FIX4_OFF,159,2026-02-02 16:47:33.764535,96.648531,0.053615,,,,,,keyboard,after digit#4,"{""note"":""after digit#4"",""pd_used"":0}",1,0.004162,240.255478,1
Sergio_G01_CNS-LLF5HT7Y0,S01,OFFmed_OFFstim,20260202_164549,2026-02-02 16:45:57.070255,1,1,digit,DIGIT5_ON,145,2026-02-02 16:47:33.817917,96.702146,0.555287,,9,,,,keyboard,digit#5 shown,"{""value"":9,""note"":""digit#5 shown"",""pd_used"":1}",1,0.004162,240.255478,1
Sergio_G01_CNS-LLF5HT7Y0,S01,OFFmed_OFFstim,20260202_164549,2026-02-02 16:45:57.070255,1,1,digit,DIGIT5_OFF,150,2026-02-02 16:47:34.373167,97.257433,0.000000,,9,,,,keyboard,digit#5 off,"{""value"":9,""note"":""digit#5 off"",""pd_used"":0}",1,0.004162,240.255478,1
Sergio_G01_CNS-LLF5HT7Y0,S01,OFFmed_OFFstim,20260202_164549,2026-02-02 16:45:57.070255,1,1,digit,POSTDIG_FIX5_ON,155,2026-02-02 16:47:34.376950,97.257433,3.467877,,,,,,keyboard,after digit#5,"{""note"":""after digit#5""}",1,0.004162,240.255478,1
Sergio_G01_CNS-LLF5HT7Y0,S01,OFFmed_OFFstim,20260202_164549,2026-02-02 16:45:57.070255,1,1,digit,POSTDIG_FIX5_OFF,160,2026-02-02 16:47:37.841328,100.725311,0.058219,,,,,,keyboard,after digit#5,"{""note"":""after digit#5"",""pd_used"":0}",1,0.004162,240.255478,1
Sergio_G01_CNS-LLF5HT7Y0,S01,OFFmed_OFFstim,20260202_164549,2026-02-02 16:45:57.070255,1,1,distractor,DISTRACTOR_ON,50,2026-02-02 16:47:37.898244,100.783530,2.711612,,5+1=7,,,,keyboard,,"{""value"":""5+1=7"",""isCorrectTruth"":false,""trueSum"":6,""pd_used"":1}",1,0.004162,240.255478,1
Sergio_G01_CNS-LLF5HT7Y0,S01,OFFmed_OFFstim,20260202_164549,2026-02-02 16:45:57.070255,1,1,distractor,DISTRACTOR_ANS,51,2026-02-02 16:47:41.048760,103.495142,0.000000,2.711612,5+1=7,F,1,,keyboard,key= (False),"{""value"":""5+1=7"",""entered"":""F"",""rt"":2.7116120999853592,""correct"":1,""note"":""key= (False)"",""truth"":false,""trueSum"":6,""shownSum"":7,""a"":5,""b"":1}",1,0.004162,240.255478,1
Sergio_G01_CNS-LLF5HT7Y0,S01,OFFmed_OFFstim,20260202_164549,2026-02-02 16:45:57.070255,1,1,distractor,ANS_CORRECT,100,2026-02-02 16:47:41.098739,103.495142,0.539659,,,,,,keyboard,,{},1,0.004162,240.255478,1
Sergio_G01_CNS-LLF5HT7Y0,S01,OFFmed_OFFstim,20260202_164549,2026-02-02 16:45:57.070255,1,1,distractor,DISTRACTOR_OFF,52,2026-02-02 16:47:41.152623,104.034801,0.000000,,,,,,keyboard,,"{""pd_used"":0}",1,0.004162,240.255478,1
Sergio_G01_CNS-LLF5HT7Y0,S01,OFFmed_OFFstim,20260202_164549,2026-02-02 16:45:57.070255,1,1,distractor,FIX2_ON,60,2026-02-02 16:47:41.155270,104.034801,3.289299,,,,,,keyboard,immediate after response,"{""note"":""immediate after response""}",1,0.004162,240.255478,1
Sergio_G01_CNS-LLF5HT7Y0,S01,OFFmed_OFFstim,20260202_164549,2026-02-02 16:45:57.070255,1,1,fix2,FIX2_OFF,61,2026-02-02 16:47:44.440057,107.324100,0.055731,,,,,,keyboard,,"{""pd_used"":0}",1,0.004162,240.255478,1
Sergio_G01_CNS-LLF5HT7Y0,S01,OFFmed_OFFstim,20260202_164549,2026-02-02 16:45:57.070255,1,1,probe,DIGIT_RECALL_LINE_1,161,2026-02-02 16:47:44.495214,107.379831,2.119700,,1,,,,keyboard,first recall question,"{""value"":1,""note"":""first recall question"",""pd_used"":1}",1,0.004162,240.255478,1
Sergio_G01_CNS-LLF5HT7Y0,S01,OFFmed_OFFstim,20260202_164549,2026-02-02 16:45:57.070255,1,1,probe,PROBE_DIGIT_OK_1,71,2026-02-02 16:47:46.962890,109.499531,0.443246,2.127013,slot#1,NaN,,,keyboard,probe_digit#1,"{""value"":""slot#1"",""entered"":null,""rt"":2.127013099991018,""note"":""probe_digit#1""}",1,0.004162,240.255478,1
Sergio_G01_CNS-LLF5HT7Y0,S01,OFFmed_OFFstim,20260202_164549,2026-02-02 16:45:57.070255,1,1,probe,DIGIT1_OFF,146,2026-02-02 16:47:47.063087,109.942777,0.000000,,9,,,,keyboard,digit#1 off,"{""value"":9,""note"":""digit#1 off"",""pd_used"":0}",1,0.004162,240.255478,1
Sergio_G01_CNS-LLF5HT7Y0,S01,OFFmed_OFFstim,20260202_164549,2026-02-02 16:45:57.070255,1,1,probe,POSTDIG_FIX1_ON,151,2026-02-02 16:47:47.065877,109.942777,1.566043,,,,,,keyboard,after digit#1,"{""note"":""after digit#1""}",1,0.004162,240.255478,1
Sergio_G01_CNS-LLF5HT7Y0,S01,OFFmed_OFFstim,20260202_164549,2026-02-02 16:45:57.070255,1,1,probe,POSTDIG_FIX1_OFF,156,2026-02-02 16:47:48.626486,111.508820,0.063547,,,,,,keyboard,after digit#1,"{""note"":""after digit#1"",""pd_used"":0}",1,0.004162,240.255478,1
Sergio_G01_CNS-LLF5HT7Y0,S01,OFFmed_OFFstim,20260202_164549,2026-02-02 16:45:57.070255,1,1,probe,DIGIT_RECALL_LINE_2,162,2026-02-02 16:47:48.688207,111.572368,0.389927,,2,,,,keyboard,next recall question,"{""value"":2,""note"":""next recall question"",""pd_used"":1}",1,0.004162,240.255478,1
Sergio_G01_CNS-LLF5HT7Y0,S01,OFFmed_OFFstim,20260202_164549,2026-02-02 16:45:57.070255,1,1,probe,PROBE_DIGIT_OK_2,71,2026-02-02 16:47:49.383576,111.962294,0.401130,4.589776,slot#2,NaN,,,keyboard,probe_digit#2,"{""value"":""slot#2"",""entered"":null,""rt"":4.5897760999796446,""note"":""probe_digit#2""}",1,0.004162,240.255478,1
Sergio_G01_CNS-LLF5HT7Y0,S01,OFFmed_OFFstim,20260202_164549,2026-02-02 16:45:57.070255,1,1,probe,DIGIT2_OFF,147,2026-02-02 16:47:49.485946,112.363424,0.000000,,9,,,,keyboard,digit#2 off,"{""value"":9,""note"":""digit#2 off"",""pd_used"":0}",1,0.004162,240.255478,1
Sergio_G01_CNS-LLF5HT7Y0,S01,OFFmed_OFFstim,20260202_164549,2026-02-02 16:45:57.070255,1,1,probe,POSTDIG_FIX2_ON,152,2026-02-02 16:47:49.488586,112.363424,1.882783,,,,,,keyboard,after digit#2,"{""note"":""after digit#2""}",1,0.004162,240.255478,1
Sergio_G01_CNS-LLF5HT7Y0,S01,OFFmed_OFFstim,20260202_164549,2026-02-02 16:45:57.070255,1,1,probe,POSTDIG_FIX2_OFF,157,2026-02-02 16:47:51.361428,114.246207,0.057925,,,,,,keyboard,after digit#2,"{""note"":""after digit#2"",""pd_used"":0}",1,0.004162,240.255478,1
Sergio_G01_CNS-LLF5HT7Y0,S01,OFFmed_OFFstim,20260202_164549,2026-02-02 16:45:57.070255,1,1,probe,DIGIT_RECALL_LINE_3,163,2026-02-02 16:47:51.418800,114.304132,0.399293,,3,,,,keyboard,next recall question,"{""value"":3,""note"":""next recall question"",""pd_used"":1}",1,0.004162,240.255478,1
Sergio_G01_CNS-LLF5HT7Y0,S01,OFFmed_OFFstim,20260202_164549,2026-02-02 16:45:57.070255,1,1,probe,PROBE_DIGIT_OK_3,71,2026-02-02 16:47:52.212359,114.703425,0.486463,7.330906,slot#3,NaN,,,keyboard,probe_digit#3,"{""value"":""slot#3"",""entered"":null,""rt"":7.3309063999913633,""note"":""probe_digit#3""}",1,0.004162,240.255478,1
Sergio_G01_CNS-LLF5HT7Y0,S01,OFFmed_OFFstim,20260202_164549,2026-02-02 16:45:57.070255,1,1,probe,DIGIT3_OFF,148,2026-02-02 16:47:52.312954,115.189887,0.000000,,9,,,,keyboard,digit#3 off,"{""value"":9,""note"":""digit#3 off"",""pd_used"":0}",1,0.004162,240.255478,1
Sergio_G01_CNS-LLF5HT7Y0,S01,OFFmed_OFFstim,20260202_164549,2026-02-02 16:45:57.070255,1,1,probe,POSTDIG_FIX3_ON,153,2026-02-02 16:47:52.315630,115.189887,1.626720,,,,,,keyboard,after digit#3,"{""note"":""after digit#3""}",1,0.004162,240.255478,1
Sergio_G01_CNS-LLF5HT7Y0,S01,OFFmed_OFFstim,20260202_164549,2026-02-02 16:45:57.070255,1,1,probe,POSTDIG_FIX3_OFF,158,2026-02-02 16:47:53.933396,116.816607,0.059964,,,,,,keyboard,after digit#3,"{""note"":""after digit#3"",""pd_used"":0}",1,0.004162,240.255478,1
Sergio_G01_CNS-LLF5HT7Y0,S01,OFFmed_OFFstim,20260202_164549,2026-02-02 16:45:57.070255,1,1,probe,DIGIT_RECALL_LINE_4,164,2026-02-02 16:47:53.993806,116.876571,0.511755,,4,,,,keyboard,next recall question,"{""value"":4,""note"":""next recall question"",""pd_used"":1}",1,0.004162,240.255478,1
Sergio_G01_CNS-LLF5HT7Y0,S01,OFFmed_OFFstim,20260202_164549,2026-02-02 16:45:57.070255,1,1,probe,PROBE_DIGIT_OK_4,71,2026-02-02 16:47:54.862306,117.388325,0.454156,10.015807,slot#4,NaN,,,keyboard,probe_digit#4,"{""value"":""slot#4"",""entered"":null,""rt"":10.015807199990377,""note"":""probe_digit#4""}",1,0.004162,240.255478,1
Sergio_G01_CNS-LLF5HT7Y0,S01,OFFmed_OFFstim,20260202_164549,2026-02-02 16:45:57.070255,1,1,probe,DIGIT4_OFF,149,2026-02-02 16:47:54.968277,117.842482,0.000000,,9,,,,keyboard,digit#4 off,"{""value"":9,""note"":""digit#4 off"",""pd_used"":0}",1,0.004162,240.255478,1
Sergio_G01_CNS-LLF5HT7Y0,S01,OFFmed_OFFstim,20260202_164549,2026-02-02 16:45:57.070255,1,1,probe,POSTDIG_FIX4_ON,154,2026-02-02 16:47:54.971615,117.842482,1.753475,,,,,,keyboard,after digit#4,"{""note"":""after digit#4""}",1,0.004162,240.255478,1
Sergio_G01_CNS-LLF5HT7Y0,S01,OFFmed_OFFstim,20260202_164549,2026-02-02 16:45:57.070255,1,1,probe,POSTDIG_FIX4_OFF,159,2026-02-02 16:47:56.711943,119.595956,0.058983,,,,,,keyboard,after digit#4,"{""note"":""after digit#4"",""pd_used"":0}",1,0.004162,240.255478,1
Sergio_G01_CNS-LLF5HT7Y0,S01,OFFmed_OFFstim,20260202_164549,2026-02-02 16:45:57.070255,1,1,probe,DIGIT_RECALL_LINE_5,165,2026-02-02 16:47:56.769811,119.654939,0.419132,,5,,,,keyboard,next recall question,"{""value"":5,""note"":""next recall question"",""pd_used"":1}",1,0.004162,240.255478,1
Sergio_G01_CNS-LLF5HT7Y0,S01,OFFmed_OFFstim,20260202_164549,2026-02-02 16:45:57.070255,1,1,probe,PROBE_DIGIT_OK_5,71,2026-02-02 16:47:57.663614,120.074071,0.572101,12.701553,slot#5,NaN,,,keyboard,probe_digit#5,"{""value"":""slot#5"",""entered"":null,""rt"":12.701552599988645,""note"":""probe_digit#5""}",1,0.004162,240.255478,1
Sergio_G01_CNS-LLF5HT7Y0,S01,OFFmed_OFFstim,20260202_164549,2026-02-02 16:45:57.070255,1,1,probe,DIGIT5_OFF,150,2026-02-02 16:47:57.764699,120.646172,0.000000,,9,,,,keyboard,digit#5 off,"{""value"":9,""note"":""digit#5 off"",""pd_used"":0}",1,0.004162,240.255478,1
Sergio_G01_CNS-LLF5HT7Y0,S01,OFFmed_OFFstim,20260202_164549,2026-02-02 16:45:57.070255,1,1,probe,POSTDIG_FIX5_ON,155,2026-02-02 16:47:57.768262,120.646172,3.242593,,,,,,keyboard,after digit#5,"{""note"":""after digit#5""}",1,0.004162,240.255478,1
Sergio_G01_CNS-LLF5HT7Y0,S01,OFFmed_OFFstim,20260202_164549,2026-02-02 16:45:57.070255,1,1,probe,POSTDIG_FIX5_OFF,160,2026-02-02 16:48:01.005668,123.888766,0.053674,,,,,,keyboard,after digit#5,"{""note"":""after digit#5"",""pd_used"":0}",1,0.004162,240.255478,1
Sergio_G01_CNS-LLF5HT7Y0,S01,OFFmed_OFFstim,20260202_164549,2026-02-02 16:45:57.070255,1,1,probe,PROBE_DONE,73,2026-02-02 16:48:01.012956,123.942440,0.002568,,,,,,keyboard,probe complete,"{""value"":"""",""note"":""probe complete""}",1,0.004162,240.255478,1
Sergio_G01_CNS-LLF5HT7Y0,S01,OFFmed_OFFstim,20260202_164549,2026-02-02 16:45:57.070255,1,1,probe,TRIAL_END,21,2026-02-02 16:48:01.015487,123.945008,0.047095,,,,,,keyboard,,{},1,0.004162,240.255478,1
Sergio_G01_CNS-LLF5HT7Y0,S01,OFFmed_OFFstim,20260202_164549,2026-02-02 16:45:57.070255,1,1,probe,BLOCK_END,11,2026-02-02 16:48:01.063134,123.992102,0.344164,,,,,,keyboard,,{},1,0.004162,240.255478,1
Sergio_G01_CNS-LLF5HT7Y0,S01,OFFmed_OFFstim,20260202_164549,2026-02-02 16:45:57.070255,1,1,probe,SESSION_END,3,2026-02-02 16:48:01.406655,124.336266,NaN,,,,,,keyboard,,{},1,0.004162,240.255478,1
