file_version,subject,condition,session,task_start_time,block,trial,phase,event_name,event_code,wall_clock,t_rel_sec,duration_to_next,rt,value_shown,entered_value,correct,key_name,device,note,json,screen_index,ifi,refresh_hz,pd_used
Sergio_G01_CNS-LLF5HT7Y0,S01,OFFmed_OFFstim,20260205_132933,2026-02-05 13:29:44.808291,NaN,NaN,,MIC_NOISEFLOOR,6,2026-02-05 13:29:52.648839,7.826837,5.824728,,,,,,keyboard,,{},2,NaN,NaN,1
Sergio_G01_CNS-LLF5HT7Y0,S01,OFFmed_OFFstim,20260205_132933,2026-02-05 13:29:44.808291,NaN,NaN,,MIC_REC_SPEECH,7,2026-02-05 13:29:58.461760,13.651566,6.819637,,,,,,keyboard,,{},2,NaN,NaN,1
Sergio_G01_CNS-LLF5HT7Y0,S01,OFFmed_OFFstim,20260205_132933,2026-02-05 13:29:44.808291,NaN,NaN,,SESSION_START,1,2026-02-05 13:30:17.445733,32.632458,0.009820,,,,,,keyboard,,{},2,0.016667,60.000000,1
Sergio_G01_CNS-LLF5HT7Y0,S01,OFFmed_OFFstim,20260205_132933,2026-02-05 13:29:44.808291,NaN,NaN,,BLOCK_START,10,2026-02-05 13:30:17.452641,32.642278,0.078962,,,,,,keyboard,,{},2,0.016667,60.000000,1
Sergio_G01_CNS-LLF5HT7Y0,S01,OFFmed_OFFstim,20260205_132933,2026-02-05 13:29:44.808291,NaN,0,reading,START_PAGE_ON,4,2026-02-05 13:30:17.571663,32.721240,0.064549,,,,,,keyboard,,"{""pd_used"":0}",2,0.016667,60.000000,1
Sergio_G01_CNS-LLF5HT7Y0,S01,OFFmed_OFFstim,20260205_132933,2026-02-05 13:29:44.808291,NaN,0,reading,START_PAGE_ON,4,2026-02-05 13:30:17.571663,32.721240,1.187393,,,,,,keyboard,,"{""pd_used"":0}",2,0.016667,60.000000,1
Sergio_G01_CNS-LLF5HT7Y0,S01,OFFmed_OFFstim,20260205_132933,2026-02-05 13:29:44.808291,NaN,0,reading,START_PAGE_ON,4,2026-02-05 13:30:17.571663,32.721240,1.553459,,,,,,keyboard,,"{""pd_used"":0}",2,0.016667,60.000000,1
Sergio_G01_CNS-LLF5HT7Y0,S01,OFFmed_OFFstim,20260205_132933,2026-02-05 13:29:44.808291,NaN,0,reading,READING_START,23,2026-02-05 13:30:19.083435,34.274699,0.085065,,,,,,keyboard,,{},2,0.016667,60.000000,1
Sergio_G01_CNS-LLF5HT7Y0,S01,OFFmed_OFFstim,20260205_132933,2026-02-05 13:29:44.808291,NaN,0,reading,DIGIT_READ1_ON,101,2026-02-05 13:30:19.210462,34.359764,2.857468,,6,,,,keyboard,digit#1 shown,"{""value"":6,""note"":""digit#1 shown"",""pd_used"":1}",2,0.016667,60.000000,1
Sergio_G01_CNS-LLF5HT7Y0,S01,OFFmed_OFFstim,20260205_132933,2026-02-05 13:29:44.808291,NaN,0,reading,PROBE_COUNT_OK_1,71,2026-02-05 13:30:24.079021,37.217232,2.111665,4.527041,slot#1,NaN,,,keyboard,probe_digit#1,"{""value"":""slot#1"",""entered"":null,""rt"":4.5270413000002918,""note"":""probe_digit#1""}",2,0.016667,60.000000,1
Sergio_G01_CNS-LLF5HT7Y0,S01,OFFmed_OFFstim,20260205_132933,2026-02-05 13:29:44.808291,NaN,0,reading,DIGIT_READ1_OFF,116,2026-02-05 13:30:24.178634,39.328897,0.000000,,6,,,,keyboard,digit#1 off,"{""value"":6,""note"":""digit#1 off"",""pd_used"":0}",2,0.016667,60.000000,1
Sergio_G01_CNS-LLF5HT7Y0,S01,OFFmed_OFFstim,20260205_132933,2026-02-05 13:29:44.808291,NaN,0,reading,POSTREAD_FIX1_ON,201,2026-02-05 13:30:24.184369,39.328897,1.823608,,,,,,keyboard,after digit#1,"{""note"":""after digit#1""}",2,0.016667,60.000000,1
Sergio_G01_CNS-LLF5HT7Y0,S01,OFFmed_OFFstim,20260205_132933,2026-02-05 13:29:44.808291,NaN,0,reading,POSTREAD_FIX1_OFF,216,2026-02-05 13:30:26.005127,41.152505,0.060969,,,,,,keyboard,after digit#1,"{""note"":""after digit#1"",""pd_used"":0}",2,0.016667,60.000000,1
Sergio_G01_CNS-LLF5HT7Y0,S01,OFFmed_OFFstim,20260205_132933,2026-02-05 13:29:44.808291,NaN,0,reading,DIGIT_READ2_ON,102,2026-02-05 13:30:26.063207,41.213474,1.202055,,0,,,,keyboard,digit#2 shown,"{""value"":0,""note"":""digit#2 shown"",""pd_used"":1}",2,0.016667,60.000000,1
Sergio_G01_CNS-LLF5HT7Y0,S01,OFFmed_OFFstim,20260205_132933,2026-02-05 13:29:44.808291,NaN,0,reading,PROBE_COUNT_OK_2,71,2026-02-05 13:30:27.674325,42.415529,0.498423,9.725338,slot#2,NaN,,,keyboard,probe_digit#2,"{""value"":""slot#2"",""entered"":null,""rt"":9.72533790000034,""note"":""probe_digit#2""}",2,0.016667,60.000000,1
Sergio_G01_CNS-LLF5HT7Y0,S01,OFFmed_OFFstim,20260205_132933,2026-02-05 13:29:44.808291,NaN,0,reading,DIGIT_READ2_OFF,117,2026-02-05 13:30:27.769443,42.913952,0.000000,,0,,,,keyboard,digit#2 off,"{""value"":0,""note"":""digit#2 off"",""pd_used"":0}",2,0.016667,60.000000,1
Sergio_G01_CNS-LLF5HT7Y0,S01,OFFmed_OFFstim,20260205_132933,2026-02-05 13:29:44.808291,NaN,0,reading,POSTREAD_FIX2_ON,202,2026-02-05 13:30:27.773170,42.913952,1.810600,,,,,,keyboard,after digit#2,"{""note"":""after digit#2""}",2,0.016667,60.000000,1
Sergio_G01_CNS-LLF5HT7Y0,S01,OFFmed_OFFstim,20260205_132933,2026-02-05 13:29:44.808291,NaN,0,reading,POSTREAD_FIX2_OFF,217,2026-02-05 13:30:29.574759,44.724552,0.051978,,,,,,keyboard,after digit#2,"{""note"":""after digit#2"",""pd_used"":0}",2,0.016667,60.000000,1
Sergio_G01_CNS-LLF5HT7Y0,S01,OFFmed_OFFstim,20260205_132933,2026-02-05 13:29:44.808291,NaN,0,reading,DIGIT_READ3_ON,103,2026-02-05 13:30:29.626311,44.776530,0.646046,,1,,,,keyboard,digit#3 shown,"{""value"":1,""note"":""digit#3 shown"",""pd_used"":1}",2,0.016667,60.000000,1
Sergio_G01_CNS-LLF5HT7Y0,S01,OFFmed_OFFstim,20260205_132933,2026-02-05 13:29:44.808291,NaN,0,reading,PROBE_COUNT_OK_3,71,2026-02-05 13:30:30.618031,45.422576,0.432747,12.732385,slot#3,NaN,,,keyboard,probe_digit#3,"{""value"":""slot#3"",""entered"":null,""rt"":12.732385200000408,""note"":""probe_digit#3""}",2,0.016667,60.000000,1
Sergio_G01_CNS-LLF5HT7Y0,S01,OFFmed_OFFstim,20260205_132933,2026-02-05 13:29:44.808291,NaN,0,reading,DIGIT_READ3_OFF,118,2026-02-05 13:30:30.712627,45.855324,0.000000,,1,,,,keyboard,digit#3 off,"{""value"":1,""note"":""digit#3 off"",""pd_used"":0}",2,0.016667,60.000000,1
Sergio_G01_CNS-LLF5HT7Y0,S01,OFFmed_OFFstim,20260205_132933,2026-02-05 13:29:44.808291,NaN,0,reading,POSTREAD_FIX3_ON,203,2026-02-05 13:30:30.715784,45.855324,1.592005,,,,,,keyboard,after digit#3,"{""note"":""after digit#3""}",2,0.016667,60.000000,1
Sergio_G01_CNS-LLF5HT7Y0,S01,OFFmed_OFFstim,20260205_132933,2026-02-05 13:29:44.808291,NaN,0,reading,POSTREAD_FIX3_OFF,218,2026-02-05 13:30:32.297961,47.447328,0.049524,,,,,,keyboard,after digit#3,"{""note"":""after digit#3"",""pd_used"":0}",2,0.016667,60.000000,1
Sergio_G01_CNS-LLF5HT7Y0,S01,OFFmed_OFFstim,20260205_132933,2026-02-05 13:29:44.808291,NaN,0,reading,DIGIT_READ4_ON,104,2026-02-05 13:30:32.348899,47.496852,NaN,,7,,,,keyboard,digit#4 shown,"{""value"":7,""note"":""digit#4 shown"",""pd_used"":1}",2,0.016667,60.000000,1
