file_version,subject,condition,session,task_start_time,block,trial,phase,event_name,event_code,wall_clock,t_rel_sec,duration_to_next,rt,value_shown,entered_value,correct,key_name,device,note,json,screen_index,ifi,refresh_hz,pd_used
Alavie_G01_CNS-LLF5HT7Y0,S01,OFFmed_OFFstim,20251121_170647,2025-11-21 17:07:37.760428,NaN,NaN,,START_PAGE_ON,4,2025-11-21 17:07:38.926567,1.123503,0.045670,,,,,,keyboard,,"{""pd_used"":0}",2,0.008333,120.000000,1
Alavie_G01_CNS-LLF5HT7Y0,S01,OFFmed_OFFstim,20251121_170647,2025-11-21 17:07:37.760428,NaN,NaN,,START_PAGE_ON,4,2025-11-21 17:07:38.926567,1.123503,1.875085,,,,,,keyboard,,"{""pd_used"":0}",2,0.008333,120.000000,1
Alavie_G01_CNS-LLF5HT7Y0,S01,OFFmed_OFFstim,20251121_170647,2025-11-21 17:07:37.760428,NaN,NaN,,START_PAGE_ON,4,2025-11-21 17:07:38.926567,1.123503,2.231591,,,,,,keyboard,,"{""pd_used"":0}",2,0.008333,120.000000,1
Alavie_G01_CNS-LLF5HT7Y0,S01,OFFmed_OFFstim,20251121_170647,2025-11-21 17:07:37.760428,NaN,NaN,,SESSION_START,1,2025-11-21 17:07:41.116765,3.355094,0.023187,,,,,,keyboard,,{},2,0.008333,120.000000,1
Alavie_G01_CNS-LLF5HT7Y0,S01,OFFmed_OFFstim,20251121_170647,2025-11-21 17:07:37.760428,1,NaN,,BLOCK_START,10,2025-11-21 17:07:41.139642,3.378281,0.054084,,,,,,keyboard,,{},2,0.008333,120.000000,1
Alavie_G01_CNS-LLF5HT7Y0,S01,OFFmed_OFFstim,20251121_170647,2025-11-21 17:07:37.760428,1,1,,TRIAL_CHANGE,22,2025-11-21 17:07:41.193701,3.432365,0.002760,,,,,,keyboard,trial transition,"{""note"":""trial transition""}",2,0.008333,120.000000,1
Alavie_G01_CNS-LLF5HT7Y0,S01,OFFmed_OFFstim,20251121_170647,2025-11-21 17:07:37.760428,1,1,,TRIAL_START,20,2025-11-21 17:07:41.196045,3.435125,0.056228,,,,,,keyboard,,{},2,0.008333,120.000000,1
Alavie_G01_CNS-LLF5HT7Y0,S01,OFFmed_OFFstim,20251121_170647,2025-11-21 17:07:37.760428,1,1,fix1,FIX1_ON,30,2025-11-21 17:07:41.300306,3.491353,3.230913,,,,,,keyboard,,"{""pd_used"":0}",2,0.008333,120.000000,1
Alavie_G01_CNS-LLF5HT7Y0,S01,OFFmed_OFFstim,20251121_170647,2025-11-21 17:07:37.760428,1,1,fix1,FIX1_OFF,31,2025-11-21 17:07:44.528005,6.722266,0.056302,,,,,,keyboard,,"{""pd_used"":0}",2,0.008333,120.000000,1
Alavie_G01_CNS-LLF5HT7Y0,S01,OFFmed_OFFstim,20251121_170647,2025-11-21 17:07:37.760428,1,1,digit,DIGIT1_ON,141,2025-11-21 17:07:44.583824,6.778568,0.555864,,0,,,,keyboard,digit#1 shown,"{""value"":0,""note"":""digit#1 shown"",""pd_used"":1}",2,0.008333,120.000000,1
Alavie_G01_CNS-LLF5HT7Y0,S01,OFFmed_OFFstim,20251121_170647,2025-11-21 17:07:37.760428,1,1,digit,DIGIT1_OFF,146,2025-11-21 17:07:45.140005,7.334432,0.000000,,0,,,,keyboard,digit#1 off,"{""value"":0,""note"":""digit#1 off"",""pd_used"":0}",2,0.008333,120.000000,1
Alavie_G01_CNS-LLF5HT7Y0,S01,OFFmed_OFFstim,20251121_170647,2025-11-21 17:07:37.760428,1,1,digit,POSTDIG_FIX1_ON,151,2025-11-21 17:07:45.142067,7.334432,1.661884,,,,,,keyboard,after digit#1,"{""note"":""after digit#1""}",2,0.008333,120.000000,1
Alavie_G01_CNS-LLF5HT7Y0,S01,OFFmed_OFFstim,20251121_170647,2025-11-21 17:07:37.760428,1,1,digit,POSTDIG_FIX1_OFF,156,2025-11-21 17:07:46.801748,8.996316,0.055327,,,,,,keyboard,after digit#1,"{""note"":""after digit#1"",""pd_used"":0}",2,0.008333,120.000000,1
Alavie_G01_CNS-LLF5HT7Y0,S01,OFFmed_OFFstim,20251121_170647,2025-11-21 17:07:37.760428,1,1,digit,DIGIT2_ON,142,2025-11-21 17:07:46.856755,9.051643,0.556005,,0,,,,keyboard,digit#2 shown,"{""value"":0,""note"":""digit#2 shown"",""pd_used"":1}",2,0.008333,120.000000,1
Alavie_G01_CNS-LLF5HT7Y0,S01,OFFmed_OFFstim,20251121_170647,2025-11-21 17:07:37.760428,1,1,digit,DIGIT2_OFF,147,2025-11-21 17:07:47.414067,9.607648,0.000000,,0,,,,keyboard,digit#2 off,"{""value"":0,""note"":""digit#2 off"",""pd_used"":0}",2,0.008333,120.000000,1
Alavie_G01_CNS-LLF5HT7Y0,S01,OFFmed_OFFstim,20251121_170647,2025-11-21 17:07:37.760428,1,1,digit,POSTDIG_FIX2_ON,152,2025-11-21 17:07:47.416476,9.607648,1.915300,,,,,,keyboard,after digit#2,"{""note"":""after digit#2""}",2,0.008333,120.000000,1
Alavie_G01_CNS-LLF5HT7Y0,S01,OFFmed_OFFstim,20251121_170647,2025-11-21 17:07:37.760428,1,1,digit,POSTDIG_FIX2_OFF,157,2025-11-21 17:07:49.329353,11.522947,0.056209,,,,,,keyboard,after digit#2,"{""note"":""after digit#2"",""pd_used"":0}",2,0.008333,120.000000,1
Alavie_G01_CNS-LLF5HT7Y0,S01,OFFmed_OFFstim,20251121_170647,2025-11-21 17:07:37.760428,1,1,digit,DIGIT3_ON,143,2025-11-21 17:07:49.384684,11.579157,0.556415,,8,,,,keyboard,digit#3 shown,"{""value"":8,""note"":""digit#3 shown"",""pd_used"":1}",2,0.008333,120.000000,1
Alavie_G01_CNS-LLF5HT7Y0,S01,OFFmed_OFFstim,20251121_170647,2025-11-21 17:07:37.760428,1,1,digit,DIGIT3_OFF,148,2025-11-21 17:07:49.941387,12.135572,0.000000,,8,,,,keyboard,digit#3 off,"{""value"":8,""note"":""digit#3 off"",""pd_used"":0}",2,0.008333,120.000000,1
Alavie_G01_CNS-LLF5HT7Y0,S01,OFFmed_OFFstim,20251121_170647,2025-11-21 17:07:37.760428,1,1,digit,POSTDIG_FIX3_ON,153,2025-11-21 17:07:49.943656,12.135572,1.913710,,,,,,keyboard,after digit#3,"{""note"":""after digit#3""}",2,0.008333,120.000000,1
Alavie_G01_CNS-LLF5HT7Y0,S01,OFFmed_OFFstim,20251121_170647,2025-11-21 17:07:37.760428,1,1,digit,POSTDIG_FIX3_OFF,158,2025-11-21 17:07:51.854300,14.049282,0.055137,,,,,,keyboard,after digit#3,"{""note"":""after digit#3"",""pd_used"":0}",2,0.008333,120.000000,1
Alavie_G01_CNS-LLF5HT7Y0,S01,OFFmed_OFFstim,20251121_170647,2025-11-21 17:07:37.760428,1,1,digit,DIGIT4_ON,144,2025-11-21 17:07:51.910203,14.104419,0.556476,,2,,,,keyboard,digit#4 shown,"{""value"":2,""note"":""digit#4 shown"",""pd_used"":1}",2,0.008333,120.000000,1
Alavie_G01_CNS-LLF5HT7Y0,S01,OFFmed_OFFstim,20251121_170647,2025-11-21 17:07:37.760428,1,1,digit,DIGIT4_OFF,149,2025-11-21 17:07:52.464645,14.660895,0.000000,,2,,,,keyboard,digit#4 off,"{""value"":2,""note"":""digit#4 off"",""pd_used"":0}",2,0.008333,120.000000,1
Alavie_G01_CNS-LLF5HT7Y0,S01,OFFmed_OFFstim,20251121_170647,2025-11-21 17:07:37.760428,1,1,digit,POSTDIG_FIX4_ON,154,2025-11-21 17:07:52.465346,14.660895,1.768314,,,,,,keyboard,after digit#4,"{""note"":""after digit#4""}",2,0.008333,120.000000,1
Alavie_G01_CNS-LLF5HT7Y0,S01,OFFmed_OFFstim,20251121_170647,2025-11-21 17:07:37.760428,1,1,digit,POSTDIG_FIX4_OFF,159,2025-11-21 17:07:54.233472,16.429209,0.053876,,,,,,keyboard,after digit#4,"{""note"":""after digit#4"",""pd_used"":0}",2,0.008333,120.000000,1
Alavie_G01_CNS-LLF5HT7Y0,S01,OFFmed_OFFstim,20251121_170647,2025-11-21 17:07:37.760428,1,1,digit,DIGIT5_ON,145,2025-11-21 17:07:54.286987,16.483085,0.553704,,7,,,,keyboard,digit#5 shown,"{""value"":7,""note"":""digit#5 shown"",""pd_used"":1}",2,0.008333,120.000000,1
Alavie_G01_CNS-LLF5HT7Y0,S01,OFFmed_OFFstim,20251121_170647,2025-11-21 17:07:37.760428,1,1,digit,DIGIT5_OFF,150,2025-11-21 17:07:54.841129,17.036788,0.000000,,7,,,,keyboard,digit#5 off,"{""value"":7,""note"":""digit#5 off"",""pd_used"":0}",2,0.008333,120.000000,1
Alavie_G01_CNS-LLF5HT7Y0,S01,OFFmed_OFFstim,20251121_170647,2025-11-21 17:07:37.760428,1,1,digit,POSTDIG_FIX5_ON,155,2025-11-21 17:07:54.842692,17.036788,3.529348,,,,,,keyboard,after digit#5,"{""note"":""after digit#5""}",2,0.008333,120.000000,1
Alavie_G01_CNS-LLF5HT7Y0,S01,OFFmed_OFFstim,20251121_170647,2025-11-21 17:07:37.760428,1,1,digit,POSTDIG_FIX5_OFF,160,2025-11-21 17:07:58.369957,20.566137,0.053704,,,,,,keyboard,after digit#5,"{""note"":""after digit#5"",""pd_used"":0}",2,0.008333,120.000000,1
Alavie_G01_CNS-LLF5HT7Y0,S01,OFFmed_OFFstim,20251121_170647,2025-11-21 17:07:37.760428,1,1,distractor,DISTRACTOR_ON,50,2025-11-21 17:07:58.423026,20.619841,1.193748,,1+4=5,,,,keyboard,,"{""value"":""1+4=5"",""isCorrectTruth"":true,""trueSum"":5,""pd_used"":1}",2,0.008333,120.000000,1
Alavie_G01_CNS-LLF5HT7Y0,S01,OFFmed_OFFstim,20251121_170647,2025-11-21 17:07:37.760428,1,1,distractor,DISTRACTOR_ANS,51,2025-11-21 17:08:00.170431,21.813589,0.000000,1.193748,1+4=5,F,0,,keyboard,key= (False),"{""value"":""1+4=5"",""entered"":""F"",""rt"":1.1937477000028593,""correct"":0,""note"":""key= (False)"",""truth"":true,""trueSum"":5,""shownSum"":5,""a"":1,""b"":4}",2,0.008333,120.000000,1
Alavie_G01_CNS-LLF5HT7Y0,S01,OFFmed_OFFstim,20251121_170647,2025-11-21 17:07:37.760428,1,1,distractor,ANS_WRONG,101,2025-11-21 17:08:00.218998,21.813589,0.654121,,,,,,keyboard,,{},2,0.008333,120.000000,1
Alavie_G01_CNS-LLF5HT7Y0,S01,OFFmed_OFFstim,20251121_170647,2025-11-21 17:07:37.760428,1,1,distractor,DISTRACTOR_OFF,52,2025-11-21 17:08:00.272887,22.467710,0.000000,,,,,,keyboard,,"{""pd_used"":0}",2,0.008333,120.000000,1
Alavie_G01_CNS-LLF5HT7Y0,S01,OFFmed_OFFstim,20251121_170647,2025-11-21 17:07:37.760428,1,1,distractor,FIX2_ON,60,2025-11-21 17:08:00.275574,22.467710,3.370220,,,,,,keyboard,immediate after response,"{""note"":""immediate after response""}",2,0.008333,120.000000,1
Alavie_G01_CNS-LLF5HT7Y0,S01,OFFmed_OFFstim,20251121_170647,2025-11-21 17:07:37.760428,1,1,fix2,FIX2_OFF,61,2025-11-21 17:08:03.643160,25.837930,0.055138,,,,,,keyboard,,"{""pd_used"":0}",2,0.008333,120.000000,1
Alavie_G01_CNS-LLF5HT7Y0,S01,OFFmed_OFFstim,20251121_170647,2025-11-21 17:07:37.760428,1,1,probe,RECALL_BLACK_ON,74,2025-11-21 17:08:03.697615,25.893068,0.057015,,,,,,keyboard,probe black page,"{""note"":""probe black page"",""pd_used"":0}",2,0.008333,120.000000,1
Alavie_G01_CNS-LLF5HT7Y0,S01,OFFmed_OFFstim,20251121_170647,2025-11-21 17:07:37.760428,1,1,probe,DIGIT_RECALL_LINE_1,161,2025-11-21 17:08:03.754354,25.950083,0.405918,,1,,,,keyboard,first recall question,"{""value"":1,""note"":""first recall question"",""pd_used"":1}",2,0.008333,120.000000,1
Alavie_G01_CNS-LLF5HT7Y0,S01,OFFmed_OFFstim,20251121_170647,2025-11-21 17:07:37.760428,1,1,probe,PROBE_DIGIT_OK_1,71,2025-11-21 17:08:04.681119,26.356000,1.911432,0.471290,slot#1,NaN,,,keyboard,probe_digit#1,"{""value"":""slot#1"",""entered"":null,""rt"":0.47129040000072564,""note"":""probe_digit#1""}",2,0.008333,120.000000,1
Alavie_G01_CNS-LLF5HT7Y0,S01,OFFmed_OFFstim,20251121_170647,2025-11-21 17:07:37.760428,1,1,probe,DIGIT_RECALL_LINE_2,162,2025-11-21 17:08:06.071990,28.267432,0.434334,,2,,,,keyboard,next recall question,"{""value"":2,""note"":""next recall question"",""pd_used"":1}",2,0.008333,120.000000,1
Alavie_G01_CNS-LLF5HT7Y0,S01,OFFmed_OFFstim,20251121_170647,2025-11-21 17:07:37.760428,1,1,probe,PROBE_DIGIT_OK_2,71,2025-11-21 17:08:07.039347,28.701766,1.890753,2.817056,slot#2,NaN,,,keyboard,probe_digit#2,"{""value"":""slot#2"",""entered"":null,""rt"":2.8170561000006273,""note"":""probe_digit#2""}",2,0.008333,120.000000,1
Alavie_G01_CNS-LLF5HT7Y0,S01,OFFmed_OFFstim,20251121_170647,2025-11-21 17:07:37.760428,1,1,probe,DIGIT_RECALL_LINE_3,163,2025-11-21 17:08:08.397307,30.592519,0.619217,,3,,,,keyboard,next recall question,"{""value"":3,""note"":""next recall question"",""pd_used"":1}",2,0.008333,120.000000,1
Alavie_G01_CNS-LLF5HT7Y0,S01,OFFmed_OFFstim,20251121_170647,2025-11-21 17:07:37.760428,1,1,probe,PROBE_DIGIT_OK_3,71,2025-11-21 17:08:09.476782,31.211735,1.603223,5.327025,slot#3,NaN,,,keyboard,probe_digit#3,"{""value"":""slot#3"",""entered"":null,""rt"":5.32702540000173,""note"":""probe_digit#3""}",2,0.008333,120.000000,1
Alavie_G01_CNS-LLF5HT7Y0,S01,OFFmed_OFFstim,20251121_170647,2025-11-21 17:07:37.760428,1,1,probe,DIGIT_RECALL_LINE_4,164,2025-11-21 17:08:10.619239,32.814959,0.665880,,4,,,,keyboard,next recall question,"{""value"":4,""note"":""next recall question"",""pd_used"":1}",2,0.008333,120.000000,1
Alavie_G01_CNS-LLF5HT7Y0,S01,OFFmed_OFFstim,20251121_170647,2025-11-21 17:07:37.760428,1,1,probe,PROBE_DIGIT_OK_4,71,2025-11-21 17:08:11.826240,33.480838,1.793429,7.596128,slot#4,NaN,,,keyboard,probe_digit#4,"{""value"":""slot#4"",""entered"":null,""rt"":7.5961281000018062,""note"":""probe_digit#4""}",2,0.008333,120.000000,1
Alavie_G01_CNS-LLF5HT7Y0,S01,OFFmed_OFFstim,20251121_170647,2025-11-21 17:07:37.760428,1,1,probe,DIGIT_RECALL_LINE_5,165,2025-11-21 17:08:13.079490,35.274267,0.573532,,5,,,,keyboard,next recall question,"{""value"":5,""note"":""next recall question"",""pd_used"":1}",2,0.008333,120.000000,1
Alavie_G01_CNS-LLF5HT7Y0,S01,OFFmed_OFFstim,20251121_170647,2025-11-21 17:07:37.760428,1,1,probe,PROBE_DIGIT_OK_5,71,2025-11-21 17:08:14.370104,35.847800,2.207414,9.963090,slot#5,NaN,,,keyboard,probe_digit#5,"{""value"":""slot#5"",""entered"":null,""rt"":9.963089900000341,""note"":""probe_digit#5""}",2,0.008333,120.000000,1
Alavie_G01_CNS-LLF5HT7Y0,S01,OFFmed_OFFstim,20251121_170647,2025-11-21 17:07:37.760428,1,1,probe,PROBE_DONE,73,2025-11-21 17:08:15.816743,38.055214,0.003257,,,,,,keyboard,probe complete,"{""value"":"""",""note"":""probe complete""}",2,0.008333,120.000000,1
Alavie_G01_CNS-LLF5HT7Y0,S01,OFFmed_OFFstim,20251121_170647,2025-11-21 17:07:37.760428,1,1,probe,TRIAL_END,21,2025-11-21 17:08:15.819391,38.058471,0.045590,,,,,,keyboard,,{},2,0.008333,120.000000,1
Alavie_G01_CNS-LLF5HT7Y0,S01,OFFmed_OFFstim,20251121_170647,2025-11-21 17:07:37.760428,1,2,probe,TRIAL_CHANGE,22,2025-11-21 17:08:15.865310,38.104060,0.002463,,,,,,keyboard,trial transition,"{""note"":""trial transition""}",2,0.008333,120.000000,1
Alavie_G01_CNS-LLF5HT7Y0,S01,OFFmed_OFFstim,20251121_170647,2025-11-21 17:07:37.760428,1,2,probe,TRIAL_START,20,2025-11-21 17:08:15.867396,38.106523,0.059253,,,,,,keyboard,,{},2,0.008333,120.000000,1
Alavie_G01_CNS-LLF5HT7Y0,S01,OFFmed_OFFstim,20251121_170647,2025-11-21 17:07:37.760428,1,2,fix1,FIX1_ON,30,2025-11-21 17:08:15.970704,38.165776,3.179936,,,,,,keyboard,,"{""pd_used"":0}",2,0.008333,120.000000,1
Alavie_G01_CNS-LLF5HT7Y0,S01,OFFmed_OFFstim,20251121_170647,2025-11-21 17:07:37.760428,1,2,fix1,FIX1_OFF,31,2025-11-21 17:08:19.151067,41.345713,0.055463,,,,,,keyboard,,"{""pd_used"":0}",2,0.008333,120.000000,1
Alavie_G01_CNS-LLF5HT7Y0,S01,OFFmed_OFFstim,20251121_170647,2025-11-21 17:07:37.760428,1,2,digit,DIGIT1_ON,141,2025-11-21 17:08:19.205178,41.401176,0.554003,,1,,,,keyboard,digit#1 shown,"{""value"":1,""note"":""digit#1 shown"",""pd_used"":1}",2,0.008333,120.000000,1
Alavie_G01_CNS-LLF5HT7Y0,S01,OFFmed_OFFstim,20251121_170647,2025-11-21 17:07:37.760428,1,2,digit,DIGIT1_OFF,146,2025-11-21 17:08:19.759711,41.955180,0.000000,,1,,,,keyboard,digit#1 off,"{""value"":1,""note"":""digit#1 off"",""pd_used"":0}",2,0.008333,120.000000,1
Alavie_G01_CNS-LLF5HT7Y0,S01,OFFmed_OFFstim,20251121_170647,2025-11-21 17:07:37.760428,1,2,digit,POSTDIG_FIX1_ON,151,2025-11-21 17:08:19.762280,41.955180,1.801045,,,,,,keyboard,after digit#1,"{""note"":""after digit#1""}",2,0.008333,120.000000,1
Alavie_G01_CNS-LLF5HT7Y0,S01,OFFmed_OFFstim,20251121_170647,2025-11-21 17:07:37.760428,1,2,digit,POSTDIG_FIX1_OFF,156,2025-11-21 17:08:21.561114,43.756224,0.055462,,,,,,keyboard,after digit#1,"{""note"":""after digit#1"",""pd_used"":0}",2,0.008333,120.000000,1
Alavie_G01_CNS-LLF5HT7Y0,S01,OFFmed_OFFstim,20251121_170647,2025-11-21 17:07:37.760428,1,2,digit,DIGIT2_ON,142,2025-11-21 17:08:21.616208,43.811687,0.555488,,8,,,,keyboard,digit#2 shown,"{""value"":8,""note"":""digit#2 shown"",""pd_used"":1}",2,0.008333,120.000000,1
Alavie_G01_CNS-LLF5HT7Y0,S01,OFFmed_OFFstim,20251121_170647,2025-11-21 17:07:37.760428,1,2,digit,DIGIT2_OFF,147,2025-11-21 17:08:22.172240,44.367175,0.000000,,8,,,,keyboard,digit#2 off,"{""value"":8,""note"":""digit#2 off"",""pd_used"":0}",2,0.008333,120.000000,1
Alavie_G01_CNS-LLF5HT7Y0,S01,OFFmed_OFFstim,20251121_170647,2025-11-21 17:07:37.760428,1,2,digit,POSTDIG_FIX2_ON,152,2025-11-21 17:08:22.174546,44.367175,1.582958,,,,,,keyboard,after digit#2,"{""note"":""after digit#2""}",2,0.008333,120.000000,1
Alavie_G01_CNS-LLF5HT7Y0,S01,OFFmed_OFFstim,20251121_170647,2025-11-21 17:07:37.760428,1,2,digit,POSTDIG_FIX2_OFF,157,2025-11-21 17:08:23.754910,45.950133,0.054866,,,,,,keyboard,after digit#2,"{""note"":""after digit#2"",""pd_used"":0}",2,0.008333,120.000000,1
Alavie_G01_CNS-LLF5HT7Y0,S01,OFFmed_OFFstim,20251121_170647,2025-11-21 17:07:37.760428,1,2,digit,DIGIT3_ON,143,2025-11-21 17:08:23.808292,46.004999,0.553804,,3,,,,keyboard,digit#3 shown,"{""value"":3,""note"":""digit#3 shown"",""pd_used"":1}",2,0.008333,120.000000,1
Alavie_G01_CNS-LLF5HT7Y0,S01,OFFmed_OFFstim,20251121_170647,2025-11-21 17:07:37.760428,1,2,digit,DIGIT3_OFF,148,2025-11-21 17:08:24.363685,46.558803,0.000000,,3,,,,keyboard,digit#3 off,"{""value"":3,""note"":""digit#3 off"",""pd_used"":0}",2,0.008333,120.000000,1
Alavie_G01_CNS-LLF5HT7Y0,S01,OFFmed_OFFstim,20251121_170647,2025-11-21 17:07:37.760428,1,2,digit,POSTDIG_FIX3_ON,153,2025-11-21 17:08:24.366572,46.558803,1.888407,,,,,,keyboard,after digit#3,"{""note"":""after digit#3""}",2,0.008333,120.000000,1
Alavie_G01_CNS-LLF5HT7Y0,S01,OFFmed_OFFstim,20251121_170647,2025-11-21 17:07:37.760428,1,2,digit,POSTDIG_FIX3_OFF,158,2025-11-21 17:08:26.253046,48.447210,0.056200,,,,,,keyboard,after digit#3,"{""note"":""after digit#3"",""pd_used"":0}",2,0.008333,120.000000,1
Alavie_G01_CNS-LLF5HT7Y0,S01,OFFmed_OFFstim,20251121_170647,2025-11-21 17:07:37.760428,1,2,digit,DIGIT4_ON,144,2025-11-21 17:08:26.307406,48.503410,0.554435,,5,,,,keyboard,digit#4 shown,"{""value"":5,""note"":""digit#4 shown"",""pd_used"":1}",2,0.008333,120.000000,1
Alavie_G01_CNS-LLF5HT7Y0,S01,OFFmed_OFFstim,20251121_170647,2025-11-21 17:07:37.760428,1,2,digit,DIGIT4_OFF,149,2025-11-21 17:08:26.862483,49.057845,0.000000,,5,,,,keyboard,digit#4 off,"{""value"":5,""note"":""digit#4 off"",""pd_used"":0}",2,0.008333,120.000000,1
Alavie_G01_CNS-LLF5HT7Y0,S01,OFFmed_OFFstim,20251121_170647,2025-11-21 17:07:37.760428,1,2,digit,POSTDIG_FIX4_ON,154,2025-11-21 17:08:26.865093,49.057845,1.721474,,,,,,keyboard,after digit#4,"{""note"":""after digit#4""}",2,0.008333,120.000000,1
Alavie_G01_CNS-LLF5HT7Y0,S01,OFFmed_OFFstim,20251121_170647,2025-11-21 17:07:37.760428,1,2,digit,POSTDIG_FIX4_OFF,159,2025-11-21 17:08:28.584144,50.779319,0.054524,,,,,,keyboard,after digit#4,"{""note"":""after digit#4"",""pd_used"":0}",2,0.008333,120.000000,1
Alavie_G01_CNS-LLF5HT7Y0,S01,OFFmed_OFFstim,20251121_170647,2025-11-21 17:07:37.760428,1,2,digit,DIGIT5_ON,145,2025-11-21 17:08:28.638403,50.833843,0.555024,,1,,,,keyboard,digit#5 shown,"{""value"":1,""note"":""digit#5 shown"",""pd_used"":1}",2,0.008333,120.000000,1
Alavie_G01_CNS-LLF5HT7Y0,S01,OFFmed_OFFstim,20251121_170647,2025-11-21 17:07:37.760428,1,2,digit,DIGIT5_OFF,150,2025-11-21 17:08:29.194590,51.388867,0.000000,,1,,,,keyboard,digit#5 off,"{""value"":1,""note"":""digit#5 off"",""pd_used"":0}",2,0.008333,120.000000,1
Alavie_G01_CNS-LLF5HT7Y0,S01,OFFmed_OFFstim,20251121_170647,2025-11-21 17:07:37.760428,1,2,digit,POSTDIG_FIX5_ON,155,2025-11-21 17:08:29.196895,51.388867,3.144363,,,,,,keyboard,after digit#5,"{""note"":""after digit#5""}",2,0.008333,120.000000,1
Alavie_G01_CNS-LLF5HT7Y0,S01,OFFmed_OFFstim,20251121_170647,2025-11-21 17:07:37.760428,1,2,digit,POSTDIG_FIX5_OFF,160,2025-11-21 17:08:32.337195,54.533230,0.054057,,,,,,keyboard,after digit#5,"{""note"":""after digit#5"",""pd_used"":0}",2,0.008333,120.000000,1
Alavie_G01_CNS-LLF5HT7Y0,S01,OFFmed_OFFstim,20251121_170647,2025-11-21 17:07:37.760428,1,2,distractor,DISTRACTOR_ON,50,2025-11-21 17:08:32.392259,54.587287,1.516176,,7+3=8,,,,keyboard,,"{""value"":""7+3=8"",""isCorrectTruth"":false,""trueSum"":10,""pd_used"":1}",2,0.008333,120.000000,1
Alavie_G01_CNS-LLF5HT7Y0,S01,OFFmed_OFFstim,20251121_170647,2025-11-21 17:07:37.760428,1,2,distractor,DISTRACTOR_ANS,51,2025-11-21 17:08:34.604170,56.103463,0.000000,1.516176,7+3=8,F,1,,keyboard,key= (False),"{""value"":""7+3=8"",""entered"":""F"",""rt"":1.5161757999994734,""correct"":1,""note"":""key= (False)"",""truth"":false,""trueSum"":10,""shownSum"":8,""a"":7,""b"":3}",2,0.008333,120.000000,1
Alavie_G01_CNS-LLF5HT7Y0,S01,OFFmed_OFFstim,20251121_170647,2025-11-21 17:07:37.760428,1,2,distractor,ANS_CORRECT,100,2025-11-21 17:08:34.651828,56.103463,0.796699,,,,,,keyboard,,{},2,0.008333,120.000000,1
Alavie_G01_CNS-LLF5HT7Y0,S01,OFFmed_OFFstim,20251121_170647,2025-11-21 17:07:37.760428,1,2,distractor,DISTRACTOR_OFF,52,2025-11-21 17:08:34.704961,56.900162,0.000000,,,,,,keyboard,,"{""pd_used"":0}",2,0.008333,120.000000,1
Alavie_G01_CNS-LLF5HT7Y0,S01,OFFmed_OFFstim,20251121_170647,2025-11-21 17:07:37.760428,1,2,distractor,FIX2_ON,60,2025-11-21 17:08:34.707153,56.900162,3.375900,,,,,,keyboard,immediate after response,"{""note"":""immediate after response""}",2,0.008333,120.000000,1
Alavie_G01_CNS-LLF5HT7Y0,S01,OFFmed_OFFstim,20251121_170647,2025-11-21 17:07:37.760428,1,2,fix2,FIX2_OFF,61,2025-11-21 17:08:38.082369,60.276062,0.057017,,,,,,keyboard,,"{""pd_used"":0}",2,0.008333,120.000000,1
Alavie_G01_CNS-LLF5HT7Y0,S01,OFFmed_OFFstim,20251121_170647,2025-11-21 17:07:37.760428,1,2,probe,RECALL_BLACK_ON,74,2025-11-21 17:08:38.136581,60.333079,0.052440,,,,,,keyboard,probe black page,"{""note"":""probe black page"",""pd_used"":0}",2,0.008333,120.000000,1
Alavie_G01_CNS-LLF5HT7Y0,S01,OFFmed_OFFstim,20251121_170647,2025-11-21 17:07:37.760428,1,2,probe,DIGIT_RECALL_LINE_1,161,2025-11-21 17:08:38.190668,60.385519,0.604727,,1,,,,keyboard,first recall question,"{""value"":1,""note"":""first recall question"",""pd_used"":1}",2,0.008333,120.000000,1
Alavie_G01_CNS-LLF5HT7Y0,S01,OFFmed_OFFstim,20251121_170647,2025-11-21 17:07:37.760428,1,2,probe,PROBE_DIGIT_OK_1,71,2025-11-21 17:08:39.347049,60.990246,2.111436,0.666366,slot#1,NaN,,,keyboard,probe_digit#1,"{""value"":""slot#1"",""entered"":null,""rt"":0.66636579999976675,""note"":""probe_digit#1""}",2,0.008333,120.000000,1
Alavie_G01_CNS-LLF5HT7Y0,S01,OFFmed_OFFstim,20251121_170647,2025-11-21 17:07:37.760428,1,2,probe,DIGIT_RECALL_LINE_2,162,2025-11-21 17:08:40.907251,63.101683,0.595360,,2,,,,keyboard,next recall question,"{""value"":2,""note"":""next recall question"",""pd_used"":1}",2,0.008333,120.000000,1
Alavie_G01_CNS-LLF5HT7Y0,S01,OFFmed_OFFstim,20251121_170647,2025-11-21 17:07:37.760428,1,2,probe,PROBE_DIGIT_OK_2,71,2025-11-21 17:08:41.971104,63.697043,1.807168,3.373162,slot#2,NaN,,,keyboard,probe_digit#2,"{""value"":""slot#2"",""entered"":null,""rt"":3.3731619999998657,""note"":""probe_digit#2""}",2,0.008333,120.000000,1
Alavie_G01_CNS-LLF5HT7Y0,S01,OFFmed_OFFstim,20251121_170647,2025-11-21 17:07:37.760428,1,2,probe,DIGIT_RECALL_LINE_3,163,2025-11-21 17:08:43.309831,65.504211,0.824422,,3,,,,keyboard,next recall question,"{""value"":3,""note"":""next recall question"",""pd_used"":1}",2,0.008333,120.000000,1
Alavie_G01_CNS-LLF5HT7Y0,S01,OFFmed_OFFstim,20251121_170647,2025-11-21 17:07:37.760428,1,2,probe,PROBE_DIGIT_OK_3,71,2025-11-21 17:08:44.679155,66.328633,1.759235,6.004752,slot#3,NaN,,,keyboard,probe_digit#3,"{""value"":""slot#3"",""entered"":null,""rt"":6.0047522999993816,""note"":""probe_digit#3""}",2,0.008333,120.000000,1
Alavie_G01_CNS-LLF5HT7Y0,S01,OFFmed_OFFstim,20251121_170647,2025-11-21 17:07:37.760428,1,2,probe,DIGIT_RECALL_LINE_4,164,2025-11-21 17:08:45.893759,68.087868,0.810419,,4,,,,keyboard,next recall question,"{""value"":4,""note"":""next recall question"",""pd_used"":1}",2,0.008333,120.000000,1
Alavie_G01_CNS-LLF5HT7Y0,S01,OFFmed_OFFstim,20251121_170647,2025-11-21 17:07:37.760428,1,2,probe,PROBE_DIGIT_OK_4,71,2025-11-21 17:08:47.228281,68.898287,1.733004,8.574407,slot#4,NaN,,,keyboard,probe_digit#4,"{""value"":""slot#4"",""entered"":null,""rt"":8.5744067000014184,""note"":""probe_digit#4""}",2,0.008333,120.000000,1
Alavie_G01_CNS-LLF5HT7Y0,S01,OFFmed_OFFstim,20251121_170647,2025-11-21 17:07:37.760428,1,2,probe,DIGIT_RECALL_LINE_5,165,2025-11-21 17:08:48.436288,70.631291,0.545589,,5,,,,keyboard,next recall question,"{""value"":5,""note"":""next recall question"",""pd_used"":1}",2,0.008333,120.000000,1
Alavie_G01_CNS-LLF5HT7Y0,S01,OFFmed_OFFstim,20251121_170647,2025-11-21 17:07:37.760428,1,2,probe,PROBE_DIGIT_OK_5,71,2025-11-21 17:08:49.488210,71.176880,1.948456,10.853000,slot#5,NaN,,,keyboard,probe_digit#5,"{""value"":""slot#5"",""entered"":null,""rt"":10.852999500002625,""note"":""probe_digit#5""}",2,0.008333,120.000000,1
Alavie_G01_CNS-LLF5HT7Y0,S01,OFFmed_OFFstim,20251121_170647,2025-11-21 17:07:37.760428,1,2,probe,PROBE_DONE,73,2025-11-21 17:08:50.887537,73.125336,0.004107,,,,,,keyboard,probe complete,"{""value"":"""",""note"":""probe complete""}",2,0.008333,120.000000,1
Alavie_G01_CNS-LLF5HT7Y0,S01,OFFmed_OFFstim,20251121_170647,2025-11-21 17:07:37.760428,1,2,probe,TRIAL_END,21,2025-11-21 17:08:50.890458,73.129443,0.046402,,,,,,keyboard,,{},2,0.008333,120.000000,1
Alavie_G01_CNS-LLF5HT7Y0,S01,OFFmed_OFFstim,20251121_170647,2025-11-21 17:07:37.760428,1,3,probe,TRIAL_CHANGE,22,2025-11-21 17:08:50.937195,73.175845,0.002826,,,,,,keyboard,trial transition,"{""note"":""trial transition""}",2,0.008333,120.000000,1
Alavie_G01_CNS-LLF5HT7Y0,S01,OFFmed_OFFstim,20251121_170647,2025-11-21 17:07:37.760428,1,3,probe,TRIAL_START,20,2025-11-21 17:08:50.939662,73.178672,0.059928,,,,,,keyboard,,{},2,0.008333,120.000000,1
Alavie_G01_CNS-LLF5HT7Y0,S01,OFFmed_OFFstim,20251121_170647,2025-11-21 17:07:37.760428,1,3,fix1,FIX1_ON,30,2025-11-21 17:08:51.042134,73.238600,3.074321,,,,,,keyboard,,"{""pd_used"":0}",2,0.008333,120.000000,1
Alavie_G01_CNS-LLF5HT7Y0,S01,OFFmed_OFFstim,20251121_170647,2025-11-21 17:07:37.760428,1,3,fix1,FIX1_OFF,31,2025-11-21 17:08:54.118244,76.312922,0.056699,,,,,,keyboard,,"{""pd_used"":0}",2,0.008333,120.000000,1
Alavie_G01_CNS-LLF5HT7Y0,S01,OFFmed_OFFstim,20251121_170647,2025-11-21 17:07:37.760428,1,3,digit,DIGIT1_ON,141,2025-11-21 17:08:54.174120,76.369621,0.554443,,4,,,,keyboard,digit#1 shown,"{""value"":4,""note"":""digit#1 shown"",""pd_used"":1}",2,0.008333,120.000000,1
Alavie_G01_CNS-LLF5HT7Y0,S01,OFFmed_OFFstim,20251121_170647,2025-11-21 17:07:37.760428,1,3,digit,DIGIT1_OFF,146,2025-11-21 17:08:54.729689,76.924063,0.000000,,4,,,,keyboard,digit#1 off,"{""value"":4,""note"":""digit#1 off"",""pd_used"":0}",2,0.008333,120.000000,1
Alavie_G01_CNS-LLF5HT7Y0,S01,OFFmed_OFFstim,20251121_170647,2025-11-21 17:07:37.760428,1,3,digit,POSTDIG_FIX1_ON,151,2025-11-21 17:08:54.731795,76.924063,1.738252,,,,,,keyboard,after digit#1,"{""note"":""after digit#1""}",2,0.008333,120.000000,1
Alavie_G01_CNS-LLF5HT7Y0,S01,OFFmed_OFFstim,20251121_170647,2025-11-21 17:07:37.760428,1,3,digit,POSTDIG_FIX1_OFF,156,2025-11-21 17:08:56.467030,78.662315,0.054450,,,,,,keyboard,after digit#1,"{""note"":""after digit#1"",""pd_used"":0}",2,0.008333,120.000000,1
Alavie_G01_CNS-LLF5HT7Y0,S01,OFFmed_OFFstim,20251121_170647,2025-11-21 17:07:37.760428,1,3,digit,DIGIT2_ON,142,2025-11-21 17:08:56.521954,78.716766,0.555655,,5,,,,keyboard,digit#2 shown,"{""value"":5,""note"":""digit#2 shown"",""pd_used"":1}",2,0.008333,120.000000,1
Alavie_G01_CNS-LLF5HT7Y0,S01,OFFmed_OFFstim,20251121_170647,2025-11-21 17:07:37.760428,1,3,digit,DIGIT2_OFF,147,2025-11-21 17:08:57.077832,79.272420,0.000000,,5,,,,keyboard,digit#2 off,"{""value"":5,""note"":""digit#2 off"",""pd_used"":0}",2,0.008333,120.000000,1
Alavie_G01_CNS-LLF5HT7Y0,S01,OFFmed_OFFstim,20251121_170647,2025-11-21 17:07:37.760428,1,3,digit,POSTDIG_FIX2_ON,152,2025-11-21 17:08:57.080369,79.272420,1.999190,,,,,,keyboard,after digit#2,"{""note"":""after digit#2""}",2,0.008333,120.000000,1
Alavie_G01_CNS-LLF5HT7Y0,S01,OFFmed_OFFstim,20251121_170647,2025-11-21 17:07:37.760428,1,3,digit,POSTDIG_FIX2_OFF,157,2025-11-21 17:08:59.076811,81.271610,0.055721,,,,,,keyboard,after digit#2,"{""note"":""after digit#2"",""pd_used"":0}",2,0.008333,120.000000,1
Alavie_G01_CNS-LLF5HT7Y0,S01,OFFmed_OFFstim,20251121_170647,2025-11-21 17:07:37.760428,1,3,digit,DIGIT3_ON,143,2025-11-21 17:08:59.131946,81.327331,0.555301,,3,,,,keyboard,digit#3 shown,"{""value"":3,""note"":""digit#3 shown"",""pd_used"":1}",2,0.008333,120.000000,1
Alavie_G01_CNS-LLF5HT7Y0,S01,OFFmed_OFFstim,20251121_170647,2025-11-21 17:07:37.760428,1,3,digit,DIGIT3_OFF,148,2025-11-21 17:08:59.687837,81.882632,0.000000,,3,,,,keyboard,digit#3 off,"{""value"":3,""note"":""digit#3 off"",""pd_used"":0}",2,0.008333,120.000000,1
Alavie_G01_CNS-LLF5HT7Y0,S01,OFFmed_OFFstim,20251121_170647,2025-11-21 17:07:37.760428,1,3,digit,POSTDIG_FIX3_ON,153,2025-11-21 17:08:59.690368,81.882632,1.980120,,,,,,keyboard,after digit#3,"{""note"":""after digit#3""}",2,0.008333,120.000000,1
Alavie_G01_CNS-LLF5HT7Y0,S01,OFFmed_OFFstim,20251121_170647,2025-11-21 17:07:37.760428,1,3,digit,POSTDIG_FIX3_OFF,158,2025-11-21 17:09:01.668277,83.862752,0.056213,,,,,,keyboard,after digit#3,"{""note"":""after digit#3"",""pd_used"":0}",2,0.008333,120.000000,1
Alavie_G01_CNS-LLF5HT7Y0,S01,OFFmed_OFFstim,20251121_170647,2025-11-21 17:07:37.760428,1,3,digit,DIGIT4_ON,144,2025-11-21 17:09:01.723236,83.918965,0.554509,,6,,,,keyboard,digit#4 shown,"{""value"":6,""note"":""digit#4 shown"",""pd_used"":1}",2,0.008333,120.000000,1
Alavie_G01_CNS-LLF5HT7Y0,S01,OFFmed_OFFstim,20251121_170647,2025-11-21 17:07:37.760428,1,3,digit,DIGIT4_OFF,149,2025-11-21 17:09:02.280652,84.473474,0.000000,,6,,,,keyboard,digit#4 off,"{""value"":6,""note"":""digit#4 off"",""pd_used"":0}",2,0.008333,120.000000,1
Alavie_G01_CNS-LLF5HT7Y0,S01,OFFmed_OFFstim,20251121_170647,2025-11-21 17:07:37.760428,1,3,digit,POSTDIG_FIX4_ON,154,2025-11-21 17:09:02.282817,84.473474,1.715013,,,,,,keyboard,after digit#4,"{""note"":""after digit#4""}",2,0.008333,120.000000,1
Alavie_G01_CNS-LLF5HT7Y0,S01,OFFmed_OFFstim,20251121_170647,2025-11-21 17:07:37.760428,1,3,digit,POSTDIG_FIX4_OFF,159,2025-11-21 17:09:03.992550,86.188486,0.054058,,,,,,keyboard,after digit#4,"{""note"":""after digit#4"",""pd_used"":0}",2,0.008333,120.000000,1
Alavie_G01_CNS-LLF5HT7Y0,S01,OFFmed_OFFstim,20251121_170647,2025-11-21 17:07:37.760428,1,3,digit,DIGIT5_ON,145,2025-11-21 17:09:04.046971,86.242545,0.554774,,0,,,,keyboard,digit#5 shown,"{""value"":0,""note"":""digit#5 shown"",""pd_used"":1}",2,0.008333,120.000000,1
Alavie_G01_CNS-LLF5HT7Y0,S01,OFFmed_OFFstim,20251121_170647,2025-11-21 17:07:37.760428,1,3,digit,DIGIT5_OFF,150,2025-11-21 17:09:04.602326,86.797318,0.000000,,0,,,,keyboard,digit#5 off,"{""value"":0,""note"":""digit#5 off"",""pd_used"":0}",2,0.008333,120.000000,1
Alavie_G01_CNS-LLF5HT7Y0,S01,OFFmed_OFFstim,20251121_170647,2025-11-21 17:07:37.760428,1,3,digit,POSTDIG_FIX5_ON,155,2025-11-21 17:09:04.604870,86.797318,3.260139,,,,,,keyboard,after digit#5,"{""note"":""after digit#5""}",2,0.008333,120.000000,1
Alavie_G01_CNS-LLF5HT7Y0,S01,OFFmed_OFFstim,20251121_170647,2025-11-21 17:07:37.760428,1,3,digit,POSTDIG_FIX5_OFF,160,2025-11-21 17:09:07.862395,90.057457,0.061393,,,,,,keyboard,after digit#5,"{""note"":""after digit#5"",""pd_used"":0}",2,0.008333,120.000000,1
Alavie_G01_CNS-LLF5HT7Y0,S01,OFFmed_OFFstim,20251121_170647,2025-11-21 17:07:37.760428,1,3,distractor,DISTRACTOR_ON,50,2025-11-21 17:09:07.923204,90.118851,1.211665,,3+6=9,,,,keyboard,,"{""value"":""3+6=9"",""isCorrectTruth"":true,""trueSum"":9,""pd_used"":1}",2,0.008333,120.000000,1
Alavie_G01_CNS-LLF5HT7Y0,S01,OFFmed_OFFstim,20251121_170647,2025-11-21 17:07:37.760428,1,3,distractor,DISTRACTOR_ANS,51,2025-11-21 17:09:09.706225,91.330516,0.000000,1.211665,3+6=9,F,0,,keyboard,key= (False),"{""value"":""3+6=9"",""entered"":""F"",""rt"":1.2116650999996637,""correct"":0,""note"":""key= (False)"",""truth"":true,""trueSum"":9,""shownSum"":9,""a"":3,""b"":6}",2,0.008333,120.000000,1
Alavie_G01_CNS-LLF5HT7Y0,S01,OFFmed_OFFstim,20251121_170647,2025-11-21 17:07:37.760428,1,3,distractor,ANS_WRONG,101,2025-11-21 17:09:09.753443,91.330516,0.673188,,,,,,keyboard,,{},2,0.008333,120.000000,1
Alavie_G01_CNS-LLF5HT7Y0,S01,OFFmed_OFFstim,20251121_170647,2025-11-21 17:07:37.760428,1,3,distractor,DISTRACTOR_OFF,52,2025-11-21 17:09:09.807219,92.003704,0.000000,,,,,,keyboard,,"{""pd_used"":0}",2,0.008333,120.000000,1
Alavie_G01_CNS-LLF5HT7Y0,S01,OFFmed_OFFstim,20251121_170647,2025-11-21 17:07:37.760428,1,3,distractor,FIX2_ON,60,2025-11-21 17:09:09.809601,92.003704,3.519919,,,,,,keyboard,immediate after response,"{""note"":""immediate after response""}",2,0.008333,120.000000,1
Alavie_G01_CNS-LLF5HT7Y0,S01,OFFmed_OFFstim,20251121_170647,2025-11-21 17:07:37.760428,1,3,fix2,FIX2_OFF,61,2025-11-21 17:09:13.325976,95.523623,0.051159,,,,,,keyboard,,"{""pd_used"":0}",2,0.008333,120.000000,1
Alavie_G01_CNS-LLF5HT7Y0,S01,OFFmed_OFFstim,20251121_170647,2025-11-21 17:07:37.760428,1,3,probe,RECALL_BLACK_ON,74,2025-11-21 17:09:13.380232,95.574782,0.057820,,,,,,keyboard,probe black page,"{""note"":""probe black page"",""pd_used"":0}",2,0.008333,120.000000,1
Alavie_G01_CNS-LLF5HT7Y0,S01,OFFmed_OFFstim,20251121_170647,2025-11-21 17:07:37.760428,1,3,probe,DIGIT_RECALL_LINE_1,161,2025-11-21 17:09:13.436809,95.632603,0.836570,,1,,,,keyboard,first recall question,"{""value"":1,""note"":""first recall question"",""pd_used"":1}",2,0.008333,120.000000,1
Alavie_G01_CNS-LLF5HT7Y0,S01,OFFmed_OFFstim,20251121_170647,2025-11-21 17:07:37.760428,1,3,probe,PROBE_DIGIT_OK_1,71,2025-11-21 17:09:14.770704,96.469173,1.677668,0.902360,slot#1,NaN,,,keyboard,probe_digit#1,"{""value"":""slot#1"",""entered"":null,""rt"":0.90235980000215932,""note"":""probe_digit#1""}",2,0.008333,120.000000,1
Alavie_G01_CNS-LLF5HT7Y0,S01,OFFmed_OFFstim,20251121_170647,2025-11-21 17:07:37.760428,1,3,probe,DIGIT_RECALL_LINE_2,162,2025-11-21 17:09:15.951773,98.146841,0.916736,,2,,,,keyboard,next recall question,"{""value"":2,""note"":""next recall question"",""pd_used"":1}",2,0.008333,120.000000,1
Alavie_G01_CNS-LLF5HT7Y0,S01,OFFmed_OFFstim,20251121_170647,2025-11-21 17:07:37.760428,1,3,probe,PROBE_DIGIT_OK_2,71,2025-11-21 17:09:17.389707,99.063577,1.916296,3.496764,slot#2,NaN,,,keyboard,probe_digit#2,"{""value"":""slot#2"",""entered"":null,""rt"":3.4967643999989377,""note"":""probe_digit#2""}",2,0.008333,120.000000,1
Alavie_G01_CNS-LLF5HT7Y0,S01,OFFmed_OFFstim,20251121_170647,2025-11-21 17:07:37.760428,1,3,probe,DIGIT_RECALL_LINE_3,163,2025-11-21 17:09:18.785342,100.979873,0.922070,,3,,,,keyboard,next recall question,"{""value"":3,""note"":""next recall question"",""pd_used"":1}",2,0.008333,120.000000,1
Alavie_G01_CNS-LLF5HT7Y0,S01,OFFmed_OFFstim,20251121_170647,2025-11-21 17:07:37.760428,1,3,probe,PROBE_DIGIT_OK_3,71,2025-11-21 17:09:20.208140,101.901943,2.020573,6.335130,slot#3,NaN,,,keyboard,probe_digit#3,"{""value"":""slot#3"",""entered"":null,""rt"":6.3351303999988886,""note"":""probe_digit#3""}",2,0.008333,120.000000,1
Alavie_G01_CNS-LLF5HT7Y0,S01,OFFmed_OFFstim,20251121_170647,2025-11-21 17:07:37.760428,1,3,probe,DIGIT_RECALL_LINE_4,164,2025-11-21 17:09:21.726957,103.922517,0.546248,,4,,,,keyboard,next recall question,"{""value"":4,""note"":""next recall question"",""pd_used"":1}",2,0.008333,120.000000,1
Alavie_G01_CNS-LLF5HT7Y0,S01,OFFmed_OFFstim,20251121_170647,2025-11-21 17:07:37.760428,1,3,probe,PROBE_DIGIT_OK_4,71,2025-11-21 17:09:22.748461,104.468764,1.757116,8.901951,slot#4,NaN,,,keyboard,probe_digit#4,"{""value"":""slot#4"",""entered"":null,""rt"":8.90195120000135,""note"":""probe_digit#4""}",2,0.008333,120.000000,1
Alavie_G01_CNS-LLF5HT7Y0,S01,OFFmed_OFFstim,20251121_170647,2025-11-21 17:07:37.760428,1,3,probe,DIGIT_RECALL_LINE_5,165,2025-11-21 17:09:24.030806,106.225880,0.623724,,5,,,,keyboard,next recall question,"{""value"":5,""note"":""next recall question"",""pd_used"":1}",2,0.008333,120.000000,1
Alavie_G01_CNS-LLF5HT7Y0,S01,OFFmed_OFFstim,20251121_170647,2025-11-21 17:07:37.760428,1,3,probe,PROBE_DIGIT_OK_5,71,2025-11-21 17:09:25.297953,106.849604,2.050955,11.282791,slot#5,NaN,,,keyboard,probe_digit#5,"{""value"":""slot#5"",""entered"":null,""rt"":11.282791199999338,""note"":""probe_digit#5""}",2,0.008333,120.000000,1
Alavie_G01_CNS-LLF5HT7Y0,S01,OFFmed_OFFstim,20251121_170647,2025-11-21 17:07:37.760428,1,3,probe,PROBE_DONE,73,2025-11-21 17:09:26.662420,108.900559,0.003456,,,,,,keyboard,probe complete,"{""value"":"""",""note"":""probe complete""}",2,0.008333,120.000000,1
Alavie_G01_CNS-LLF5HT7Y0,S01,OFFmed_OFFstim,20251121_170647,2025-11-21 17:07:37.760428,1,3,probe,TRIAL_END,21,2025-11-21 17:09:26.665145,108.904015,0.046758,,,,,,keyboard,,{},2,0.008333,120.000000,1
Alavie_G01_CNS-LLF5HT7Y0,S01,OFFmed_OFFstim,20251121_170647,2025-11-21 17:07:37.760428,1,4,probe,TRIAL_CHANGE,22,2025-11-21 17:09:26.711946,108.950774,0.002454,,,,,,keyboard,trial transition,"{""note"":""trial transition""}",2,0.008333,120.000000,1
Alavie_G01_CNS-LLF5HT7Y0,S01,OFFmed_OFFstim,20251121_170647,2025-11-21 17:07:37.760428,1,4,probe,TRIAL_START,20,2025-11-21 17:09:26.714109,108.953228,0.058934,,,,,,keyboard,,{},2,0.008333,120.000000,1
Alavie_G01_CNS-LLF5HT7Y0,S01,OFFmed_OFFstim,20251121_170647,2025-11-21 17:07:37.760428,1,4,fix1,FIX1_ON,30,2025-11-21 17:09:26.818425,109.012161,3.336739,,,,,,keyboard,,"{""pd_used"":0}",2,0.008333,120.000000,1
Alavie_G01_CNS-LLF5HT7Y0,S01,OFFmed_OFFstim,20251121_170647,2025-11-21 17:07:37.760428,1,4,fix1,FIX1_OFF,31,2025-11-21 17:09:30.154097,112.348901,0.054790,,,,,,keyboard,,"{""pd_used"":0}",2,0.008333,120.000000,1
Alavie_G01_CNS-LLF5HT7Y0,S01,OFFmed_OFFstim,20251121_170647,2025-11-21 17:07:37.760428,1,4,digit,DIGIT1_ON,141,2025-11-21 17:09:30.208453,112.403691,0.555289,,8,,,,keyboard,digit#1 shown,"{""value"":8,""note"":""digit#1 shown"",""pd_used"":1}",2,0.008333,120.000000,1
Alavie_G01_CNS-LLF5HT7Y0,S01,OFFmed_OFFstim,20251121_170647,2025-11-21 17:07:37.760428,1,4,digit,DIGIT1_OFF,146,2025-11-21 17:09:30.764423,112.958980,0.000000,,8,,,,keyboard,digit#1 off,"{""value"":8,""note"":""digit#1 off"",""pd_used"":0}",2,0.008333,120.000000,1
Alavie_G01_CNS-LLF5HT7Y0,S01,OFFmed_OFFstim,20251121_170647,2025-11-21 17:07:37.760428,1,4,digit,POSTDIG_FIX1_ON,151,2025-11-21 17:09:30.766715,112.958980,1.756295,,,,,,keyboard,after digit#1,"{""note"":""after digit#1""}",2,0.008333,120.000000,1
Alavie_G01_CNS-LLF5HT7Y0,S01,OFFmed_OFFstim,20251121_170647,2025-11-21 17:07:37.760428,1,4,digit,POSTDIG_FIX1_OFF,156,2025-11-21 17:09:32.520884,114.715275,0.055523,,,,,,keyboard,after digit#1,"{""note"":""after digit#1"",""pd_used"":0}",2,0.008333,120.000000,1
Alavie_G01_CNS-LLF5HT7Y0,S01,OFFmed_OFFstim,20251121_170647,2025-11-21 17:07:37.760428,1,4,digit,DIGIT2_ON,142,2025-11-21 17:09:32.575061,114.770798,0.554438,,8,,,,keyboard,digit#2 shown,"{""value"":8,""note"":""digit#2 shown"",""pd_used"":1}",2,0.008333,120.000000,1
Alavie_G01_CNS-LLF5HT7Y0,S01,OFFmed_OFFstim,20251121_170647,2025-11-21 17:07:37.760428,1,4,digit,DIGIT2_OFF,147,2025-11-21 17:09:33.130869,115.325236,0.000000,,8,,,,keyboard,digit#2 off,"{""value"":8,""note"":""digit#2 off"",""pd_used"":0}",2,0.008333,120.000000,1
Alavie_G01_CNS-LLF5HT7Y0,S01,OFFmed_OFFstim,20251121_170647,2025-11-21 17:07:37.760428,1,4,digit,POSTDIG_FIX2_ON,152,2025-11-21 17:09:33.133157,115.325236,2.048776,,,,,,keyboard,after digit#2,"{""note"":""after digit#2""}",2,0.008333,120.000000,1
Alavie_G01_CNS-LLF5HT7Y0,S01,OFFmed_OFFstim,20251121_170647,2025-11-21 17:07:37.760428,1,4,digit,POSTDIG_FIX2_OFF,157,2025-11-21 17:09:35.180251,117.374012,0.056424,,,,,,keyboard,after digit#2,"{""note"":""after digit#2"",""pd_used"":0}",2,0.008333,120.000000,1
Alavie_G01_CNS-LLF5HT7Y0,S01,OFFmed_OFFstim,20251121_170647,2025-11-21 17:07:37.760428,1,4,digit,DIGIT3_ON,143,2025-11-21 17:09:35.235035,117.430435,0.555275,,3,,,,keyboard,digit#3 shown,"{""value"":3,""note"":""digit#3 shown"",""pd_used"":1}",2,0.008333,120.000000,1
Alavie_G01_CNS-LLF5HT7Y0,S01,OFFmed_OFFstim,20251121_170647,2025-11-21 17:07:37.760428,1,4,digit,DIGIT3_OFF,148,2025-11-21 17:09:35.791204,117.985710,0.000000,,3,,,,keyboard,digit#3 off,"{""value"":3,""note"":""digit#3 off"",""pd_used"":0}",2,0.008333,120.000000,1
Alavie_G01_CNS-LLF5HT7Y0,S01,OFFmed_OFFstim,20251121_170647,2025-11-21 17:07:37.760428,1,4,digit,POSTDIG_FIX3_ON,153,2025-11-21 17:09:35.793508,117.985710,1.854617,,,,,,keyboard,after digit#3,"{""note"":""after digit#3""}",2,0.008333,120.000000,1
Alavie_G01_CNS-LLF5HT7Y0,S01,OFFmed_OFFstim,20251121_170647,2025-11-21 17:07:37.760428,1,4,digit,POSTDIG_FIX3_OFF,158,2025-11-21 17:09:37.646185,119.840327,0.055821,,,,,,keyboard,after digit#3,"{""note"":""after digit#3"",""pd_used"":0}",2,0.008333,120.000000,1
Alavie_G01_CNS-LLF5HT7Y0,S01,OFFmed_OFFstim,20251121_170647,2025-11-21 17:07:37.760428,1,4,digit,DIGIT4_ON,144,2025-11-21 17:09:37.701520,119.896148,0.556210,,7,,,,keyboard,digit#4 shown,"{""value"":7,""note"":""digit#4 shown"",""pd_used"":1}",2,0.008333,120.000000,1
Alavie_G01_CNS-LLF5HT7Y0,S01,OFFmed_OFFstim,20251121_170647,2025-11-21 17:07:37.760428,1,4,digit,DIGIT4_OFF,149,2025-11-21 17:09:38.258086,120.452358,0.000000,,7,,,,keyboard,digit#4 off,"{""value"":7,""note"":""digit#4 off"",""pd_used"":0}",2,0.008333,120.000000,1
Alavie_G01_CNS-LLF5HT7Y0,S01,OFFmed_OFFstim,20251121_170647,2025-11-21 17:07:37.760428,1,4,digit,POSTDIG_FIX4_ON,154,2025-11-21 17:09:38.260684,120.452358,1.724235,,,,,,keyboard,after digit#4,"{""note"":""after digit#4""}",2,0.008333,120.000000,1
Alavie_G01_CNS-LLF5HT7Y0,S01,OFFmed_OFFstim,20251121_170647,2025-11-21 17:07:37.760428,1,4,digit,POSTDIG_FIX4_OFF,159,2025-11-21 17:09:39.982178,122.176594,0.055813,,,,,,keyboard,after digit#4,"{""note"":""after digit#4"",""pd_used"":0}",2,0.008333,120.000000,1
Alavie_G01_CNS-LLF5HT7Y0,S01,OFFmed_OFFstim,20251121_170647,2025-11-21 17:07:37.760428,1,4,digit,DIGIT5_ON,145,2025-11-21 17:09:40.037626,122.232407,0.555754,,9,,,,keyboard,digit#5 shown,"{""value"":9,""note"":""digit#5 shown"",""pd_used"":1}",2,0.008333,120.000000,1
Alavie_G01_CNS-LLF5HT7Y0,S01,OFFmed_OFFstim,20251121_170647,2025-11-21 17:07:37.760428,1,4,digit,DIGIT5_OFF,150,2025-11-21 17:09:40.593667,122.788161,0.000000,,9,,,,keyboard,digit#5 off,"{""value"":9,""note"":""digit#5 off"",""pd_used"":0}",2,0.008333,120.000000,1
Alavie_G01_CNS-LLF5HT7Y0,S01,OFFmed_OFFstim,20251121_170647,2025-11-21 17:07:37.760428,1,4,digit,POSTDIG_FIX5_ON,155,2025-11-21 17:09:40.596233,122.788161,3.532974,,,,,,keyboard,after digit#5,"{""note"":""after digit#5""}",2,0.008333,120.000000,1
Alavie_G01_CNS-LLF5HT7Y0,S01,OFFmed_OFFstim,20251121_170647,2025-11-21 17:07:37.760428,1,4,digit,POSTDIG_FIX5_OFF,160,2025-11-21 17:09:44.126438,126.321135,0.056119,,,,,,keyboard,after digit#5,"{""note"":""after digit#5"",""pd_used"":0}",2,0.008333,120.000000,1
Alavie_G01_CNS-LLF5HT7Y0,S01,OFFmed_OFFstim,20251121_170647,2025-11-21 17:07:37.760428,1,4,distractor,DISTRACTOR_ON,50,2025-11-21 17:09:44.182446,126.377253,0.939636,,0+0=1,,,,keyboard,,"{""value"":""0+0=1"",""isCorrectTruth"":false,""trueSum"":0,""pd_used"":1}",2,0.008333,120.000000,1
Alavie_G01_CNS-LLF5HT7Y0,S01,OFFmed_OFFstim,20251121_170647,2025-11-21 17:07:37.760428,1,4,distractor,DISTRACTOR_ANS,51,2025-11-21 17:09:45.798204,127.316889,0.000000,0.939636,0+0=1,F,1,,keyboard,key= (False),"{""value"":""0+0=1"",""entered"":""F"",""rt"":0.93963590000203112,""correct"":1,""note"":""key= (False)"",""truth"":false,""trueSum"":0,""shownSum"":1,""a"":0,""b"":0}",2,0.008333,120.000000,1
Alavie_G01_CNS-LLF5HT7Y0,S01,OFFmed_OFFstim,20251121_170647,2025-11-21 17:07:37.760428,1,4,distractor,ANS_CORRECT,100,2025-11-21 17:09:45.845173,127.316889,0.778256,,,,,,keyboard,,{},2,0.008333,120.000000,1
Alavie_G01_CNS-LLF5HT7Y0,S01,OFFmed_OFFstim,20251121_170647,2025-11-21 17:07:37.760428,1,4,distractor,DISTRACTOR_OFF,52,2025-11-21 17:09:45.899711,128.095145,0.000000,,,,,,keyboard,,"{""pd_used"":0}",2,0.008333,120.000000,1
Alavie_G01_CNS-LLF5HT7Y0,S01,OFFmed_OFFstim,20251121_170647,2025-11-21 17:07:37.760428,1,4,distractor,FIX2_ON,60,2025-11-21 17:09:45.901766,128.095145,3.173791,,,,,,keyboard,immediate after response,"{""note"":""immediate after response""}",2,0.008333,120.000000,1
Alavie_G01_CNS-LLF5HT7Y0,S01,OFFmed_OFFstim,20251121_170647,2025-11-21 17:07:37.760428,1,4,fix2,FIX2_OFF,61,2025-11-21 17:09:49.074667,131.268936,0.054809,,,,,,keyboard,,"{""pd_used"":0}",2,0.008333,120.000000,1
Alavie_G01_CNS-LLF5HT7Y0,S01,OFFmed_OFFstim,20251121_170647,2025-11-21 17:07:37.760428,1,4,probe,RECALL_BLACK_ON,74,2025-11-21 17:09:49.128987,131.323745,0.055639,,,,,,keyboard,probe black page,"{""note"":""probe black page"",""pd_used"":0}",2,0.008333,120.000000,1
Alavie_G01_CNS-LLF5HT7Y0,S01,OFFmed_OFFstim,20251121_170647,2025-11-21 17:07:37.760428,1,4,probe,DIGIT_RECALL_LINE_1,161,2025-11-21 17:09:49.183542,131.379384,0.673322,,1,,,,keyboard,first recall question,"{""value"":1,""note"":""first recall question"",""pd_used"":1}",2,0.008333,120.000000,1
Alavie_G01_CNS-LLF5HT7Y0,S01,OFFmed_OFFstim,20251121_170647,2025-11-21 17:07:37.760428,1,4,probe,PROBE_DIGIT_OK_1,71,2025-11-21 17:09:50.490156,132.052706,1.886371,0.736564,slot#1,NaN,,,keyboard,probe_digit#1,"{""value"":""slot#1"",""entered"":null,""rt"":0.73656430000119144,""note"":""probe_digit#1""}",2,0.008333,120.000000,1
Alavie_G01_CNS-LLF5HT7Y0,S01,OFFmed_OFFstim,20251121_170647,2025-11-21 17:07:37.760428,1,4,probe,DIGIT_RECALL_LINE_2,162,2025-11-21 17:09:51.744487,133.939077,0.526805,,2,,,,keyboard,next recall question,"{""value"":2,""note"":""next recall question"",""pd_used"":1}",2,0.008333,120.000000,1
Alavie_G01_CNS-LLF5HT7Y0,S01,OFFmed_OFFstim,20251121_170647,2025-11-21 17:07:37.760428,1,4,probe,PROBE_DIGIT_OK_2,71,2025-11-21 17:09:52.752689,134.465882,1.837193,3.149740,slot#2,NaN,,,keyboard,probe_digit#2,"{""value"":""slot#2"",""entered"":null,""rt"":3.1497400000007474,""note"":""probe_digit#2""}",2,0.008333,120.000000,1
Alavie_G01_CNS-LLF5HT7Y0,S01,OFFmed_OFFstim,20251121_170647,2025-11-21 17:07:37.760428,1,4,probe,DIGIT_RECALL_LINE_3,163,2025-11-21 17:09:54.109089,136.303075,0.597823,,3,,,,keyboard,next recall question,"{""value"":3,""note"":""next recall question"",""pd_used"":1}",2,0.008333,120.000000,1
Alavie_G01_CNS-LLF5HT7Y0,S01,OFFmed_OFFstim,20251121_170647,2025-11-21 17:07:37.760428,1,4,probe,PROBE_DIGIT_OK_3,71,2025-11-21 17:09:55.228483,136.900897,2.004291,5.584756,slot#3,NaN,,,keyboard,probe_digit#3,"{""value"":""slot#3"",""entered"":null,""rt"":5.58475560000079,""note"":""probe_digit#3""}",2,0.008333,120.000000,1
Alavie_G01_CNS-LLF5HT7Y0,S01,OFFmed_OFFstim,20251121_170647,2025-11-21 17:07:37.760428,1,4,probe,DIGIT_RECALL_LINE_4,164,2025-11-21 17:09:56.710995,138.905188,0.457754,,4,,,,keyboard,next recall question,"{""value"":4,""note"":""next recall question"",""pd_used"":1}",2,0.008333,120.000000,1
Alavie_G01_CNS-LLF5HT7Y0,S01,OFFmed_OFFstim,20251121_170647,2025-11-21 17:07:37.760428,1,4,probe,PROBE_DIGIT_OK_4,71,2025-11-21 17:09:57.817241,139.362942,1.946335,8.046800,slot#4,NaN,,,keyboard,probe_digit#4,"{""value"":""slot#4"",""entered"":null,""rt"":8.0468002000015986,""note"":""probe_digit#4""}",2,0.008333,120.000000,1
Alavie_G01_CNS-LLF5HT7Y0,S01,OFFmed_OFFstim,20251121_170647,2025-11-21 17:07:37.760428,1,4,probe,DIGIT_RECALL_LINE_5,165,2025-11-21 17:09:59.113502,141.309277,0.422806,,5,,,,keyboard,next recall question,"{""value"":5,""note"":""next recall question"",""pd_used"":1}",2,0.008333,120.000000,1
Alavie_G01_CNS-LLF5HT7Y0,S01,OFFmed_OFFstim,20251121_170647,2025-11-21 17:07:37.760428,1,4,probe,PROBE_DIGIT_OK_5,71,2025-11-21 17:10:00.078550,141.732083,1.656188,10.415941,slot#5,NaN,,,keyboard,probe_digit#5,"{""value"":""slot#5"",""entered"":null,""rt"":10.415941100000055,""note"":""probe_digit#5""}",2,0.008333,120.000000,1
Alavie_G01_CNS-LLF5HT7Y0,S01,OFFmed_OFFstim,20251121_170647,2025-11-21 17:07:37.760428,1,4,probe,PROBE_DONE,73,2025-11-21 17:10:01.149861,143.388271,0.002912,,,,,,keyboard,probe complete,"{""value"":"""",""note"":""probe complete""}",2,0.008333,120.000000,1
Alavie_G01_CNS-LLF5HT7Y0,S01,OFFmed_OFFstim,20251121_170647,2025-11-21 17:07:37.760428,1,4,probe,TRIAL_END,21,2025-11-21 17:10:01.151844,143.391183,0.044867,,,,,,keyboard,,{},2,0.008333,120.000000,1
Alavie_G01_CNS-LLF5HT7Y0,S01,OFFmed_OFFstim,20251121_170647,2025-11-21 17:07:37.760428,1,5,probe,TRIAL_CHANGE,22,2025-11-21 17:10:01.197060,143.436050,0.002161,,,,,,keyboard,trial transition,"{""note"":""trial transition""}",2,0.008333,120.000000,1
Alavie_G01_CNS-LLF5HT7Y0,S01,OFFmed_OFFstim,20251121_170647,2025-11-21 17:07:37.760428,1,5,probe,TRIAL_START,20,2025-11-21 17:10:01.198857,143.438211,0.059923,,,,,,keyboard,,{},2,0.008333,120.000000,1
Alavie_G01_CNS-LLF5HT7Y0,S01,OFFmed_OFFstim,20251121_170647,2025-11-21 17:07:37.760428,1,5,fix1,FIX1_ON,30,2025-11-21 17:10:01.303359,143.498134,3.363552,,,,,,keyboard,,"{""pd_used"":0}",2,0.008333,120.000000,1
Alavie_G01_CNS-LLF5HT7Y0,S01,OFFmed_OFFstim,20251121_170647,2025-11-21 17:07:37.760428,1,5,fix1,FIX1_OFF,31,2025-11-21 17:10:04.666002,146.861686,0.054098,,,,,,keyboard,,"{""pd_used"":0}",2,0.008333,120.000000,1
Alavie_G01_CNS-LLF5HT7Y0,S01,OFFmed_OFFstim,20251121_170647,2025-11-21 17:07:37.760428,1,5,digit,DIGIT1_ON,141,2025-11-21 17:10:04.719890,146.915784,0.553985,,2,,,,keyboard,digit#1 shown,"{""value"":2,""note"":""digit#1 shown"",""pd_used"":1}",2,0.008333,120.000000,1
Alavie_G01_CNS-LLF5HT7Y0,S01,OFFmed_OFFstim,20251121_170647,2025-11-21 17:07:37.760428,1,5,digit,DIGIT1_OFF,146,2025-11-21 17:10:05.274079,147.469769,0.000000,,2,,,,keyboard,digit#1 off,"{""value"":2,""note"":""digit#1 off"",""pd_used"":0}",2,0.008333,120.000000,1
Alavie_G01_CNS-LLF5HT7Y0,S01,OFFmed_OFFstim,20251121_170647,2025-11-21 17:07:37.760428,1,5,digit,POSTDIG_FIX1_ON,151,2025-11-21 17:10:05.276108,147.469769,1.923628,,,,,,keyboard,after digit#1,"{""note"":""after digit#1""}",2,0.008333,120.000000,1
Alavie_G01_CNS-LLF5HT7Y0,S01,OFFmed_OFFstim,20251121_170647,2025-11-21 17:07:37.760428,1,5,digit,POSTDIG_FIX1_OFF,156,2025-11-21 17:10:07.198928,149.393397,0.055689,,,,,,keyboard,after digit#1,"{""note"":""after digit#1"",""pd_used"":0}",2,0.008333,120.000000,1
Alavie_G01_CNS-LLF5HT7Y0,S01,OFFmed_OFFstim,20251121_170647,2025-11-21 17:07:37.760428,1,5,digit,DIGIT2_ON,142,2025-11-21 17:10:07.253079,149.449086,0.554154,,9,,,,keyboard,digit#2 shown,"{""value"":9,""note"":""digit#2 shown"",""pd_used"":1}",2,0.008333,120.000000,1
Alavie_G01_CNS-LLF5HT7Y0,S01,OFFmed_OFFstim,20251121_170647,2025-11-21 17:07:37.760428,1,5,digit,DIGIT2_OFF,147,2025-11-21 17:10:07.807498,150.003240,0.000000,,9,,,,keyboard,digit#2 off,"{""value"":9,""note"":""digit#2 off"",""pd_used"":0}",2,0.008333,120.000000,1
Alavie_G01_CNS-LLF5HT7Y0,S01,OFFmed_OFFstim,20251121_170647,2025-11-21 17:07:37.760428,1,5,digit,POSTDIG_FIX2_ON,152,2025-11-21 17:10:07.809402,150.003240,1.928667,,,,,,keyboard,after digit#2,"{""note"":""after digit#2""}",2,0.008333,120.000000,1
Alavie_G01_CNS-LLF5HT7Y0,S01,OFFmed_OFFstim,20251121_170647,2025-11-21 17:07:37.760428,1,5,digit,POSTDIG_FIX2_OFF,157,2025-11-21 17:10:09.736556,151.931906,0.054296,,,,,,keyboard,after digit#2,"{""note"":""after digit#2"",""pd_used"":0}",2,0.008333,120.000000,1
Alavie_G01_CNS-LLF5HT7Y0,S01,OFFmed_OFFstim,20251121_170647,2025-11-21 17:07:37.760428,1,5,digit,DIGIT3_ON,143,2025-11-21 17:10:09.790450,151.986203,0.555005,,5,,,,keyboard,digit#3 shown,"{""value"":5,""note"":""digit#3 shown"",""pd_used"":1}",2,0.008333,120.000000,1
Alavie_G01_CNS-LLF5HT7Y0,S01,OFFmed_OFFstim,20251121_170647,2025-11-21 17:07:37.760428,1,5,digit,DIGIT3_OFF,148,2025-11-21 17:10:10.345730,152.541207,0.000000,,5,,,,keyboard,digit#3 off,"{""value"":5,""note"":""digit#3 off"",""pd_used"":0}",2,0.008333,120.000000,1
Alavie_G01_CNS-LLF5HT7Y0,S01,OFFmed_OFFstim,20251121_170647,2025-11-21 17:07:37.760428,1,5,digit,POSTDIG_FIX3_ON,153,2025-11-21 17:10:10.347675,152.541207,1.648487,,,,,,keyboard,after digit#3,"{""note"":""after digit#3""}",2,0.008333,120.000000,1
Alavie_G01_CNS-LLF5HT7Y0,S01,OFFmed_OFFstim,20251121_170647,2025-11-21 17:07:37.760428,1,5,digit,POSTDIG_FIX3_OFF,158,2025-11-21 17:10:11.995704,154.189695,0.056318,,,,,,keyboard,after digit#3,"{""note"":""after digit#3"",""pd_used"":0}",2,0.008333,120.000000,1
Alavie_G01_CNS-LLF5HT7Y0,S01,OFFmed_OFFstim,20251121_170647,2025-11-21 17:07:37.760428,1,5,digit,DIGIT4_ON,144,2025-11-21 17:10:12.050678,154.246012,0.555550,,0,,,,keyboard,digit#4 shown,"{""value"":0,""note"":""digit#4 shown"",""pd_used"":1}",2,0.008333,120.000000,1
Alavie_G01_CNS-LLF5HT7Y0,S01,OFFmed_OFFstim,20251121_170647,2025-11-21 17:07:37.760428,1,5,digit,DIGIT4_OFF,149,2025-11-21 17:10:12.606619,154.801562,0.000000,,0,,,,keyboard,digit#4 off,"{""value"":0,""note"":""digit#4 off"",""pd_used"":0}",2,0.008333,120.000000,1
Alavie_G01_CNS-LLF5HT7Y0,S01,OFFmed_OFFstim,20251121_170647,2025-11-21 17:07:37.760428,1,5,digit,POSTDIG_FIX4_ON,154,2025-11-21 17:10:12.609291,154.801562,1.676531,,,,,,keyboard,after digit#4,"{""note"":""after digit#4""}",2,0.008333,120.000000,1
Alavie_G01_CNS-LLF5HT7Y0,S01,OFFmed_OFFstim,20251121_170647,2025-11-21 17:07:37.760428,1,5,digit,POSTDIG_FIX4_OFF,159,2025-11-21 17:10:14.283192,156.478093,0.055327,,,,,,keyboard,after digit#4,"{""note"":""after digit#4"",""pd_used"":0}",2,0.008333,120.000000,1
Alavie_G01_CNS-LLF5HT7Y0,S01,OFFmed_OFFstim,20251121_170647,2025-11-21 17:07:37.760428,1,5,digit,DIGIT5_ON,145,2025-11-21 17:10:14.337748,156.533420,0.554766,,8,,,,keyboard,digit#5 shown,"{""value"":8,""note"":""digit#5 shown"",""pd_used"":1}",2,0.008333,120.000000,1
Alavie_G01_CNS-LLF5HT7Y0,S01,OFFmed_OFFstim,20251121_170647,2025-11-21 17:07:37.760428,1,5,digit,DIGIT5_OFF,150,2025-11-21 17:10:14.893129,157.088186,0.000000,,8,,,,keyboard,digit#5 off,"{""value"":8,""note"":""digit#5 off"",""pd_used"":0}",2,0.008333,120.000000,1
Alavie_G01_CNS-LLF5HT7Y0,S01,OFFmed_OFFstim,20251121_170647,2025-11-21 17:07:37.760428,1,5,digit,POSTDIG_FIX5_ON,155,2025-11-21 17:10:14.895476,157.088186,3.122900,,,,,,keyboard,after digit#5,"{""note"":""after digit#5""}",2,0.008333,120.000000,1
Alavie_G01_CNS-LLF5HT7Y0,S01,OFFmed_OFFstim,20251121_170647,2025-11-21 17:07:37.760428,1,5,digit,POSTDIG_FIX5_OFF,160,2025-11-21 17:10:18.016221,160.211086,0.055119,,,,,,keyboard,after digit#5,"{""note"":""after digit#5"",""pd_used"":0}",2,0.008333,120.000000,1
Alavie_G01_CNS-LLF5HT7Y0,S01,OFFmed_OFFstim,20251121_170647,2025-11-21 17:07:37.760428,1,5,distractor,DISTRACTOR_ON,50,2025-11-21 17:10:18.070846,160.266204,1.203728,,5+7=10,,,,keyboard,,"{""value"":""5+7=10"",""isCorrectTruth"":false,""trueSum"":12,""pd_used"":1}",2,0.008333,120.000000,1
Alavie_G01_CNS-LLF5HT7Y0,S01,OFFmed_OFFstim,20251121_170647,2025-11-21 17:07:37.760428,1,5,distractor,DISTRACTOR_ANS,51,2025-11-21 17:10:19.941642,161.469933,0.000000,1.203728,5+7=10,F,1,,keyboard,key= (False),"{""value"":""5+7=10"",""entered"":""F"",""rt"":1.2037281999982952,""correct"":1,""note"":""key= (False)"",""truth"":false,""trueSum"":12,""shownSum"":10,""a"":5,""b"":7}",2,0.008333,120.000000,1
Alavie_G01_CNS-LLF5HT7Y0,S01,OFFmed_OFFstim,20251121_170647,2025-11-21 17:07:37.760428,1,5,distractor,ANS_CORRECT,100,2025-11-21 17:10:19.988409,161.469933,0.768268,,,,,,keyboard,,{},2,0.008333,120.000000,1
Alavie_G01_CNS-LLF5HT7Y0,S01,OFFmed_OFFstim,20251121_170647,2025-11-21 17:07:37.760428,1,5,distractor,DISTRACTOR_OFF,52,2025-11-21 17:10:20.042534,162.238200,0.000000,,,,,,keyboard,,"{""pd_used"":0}",2,0.008333,120.000000,1
Alavie_G01_CNS-LLF5HT7Y0,S01,OFFmed_OFFstim,20251121_170647,2025-11-21 17:07:37.760428,1,5,distractor,FIX2_ON,60,2025-11-21 17:10:20.044493,162.238200,3.387330,,,,,,keyboard,immediate after response,"{""note"":""immediate after response""}",2,0.008333,120.000000,1
Alavie_G01_CNS-LLF5HT7Y0,S01,OFFmed_OFFstim,20251121_170647,2025-11-21 17:07:37.760428,1,5,fix2,FIX2_OFF,61,2025-11-21 17:10:23.430678,165.625531,0.056818,,,,,,keyboard,,"{""pd_used"":0}",2,0.008333,120.000000,1
Alavie_G01_CNS-LLF5HT7Y0,S01,OFFmed_OFFstim,20251121_170647,2025-11-21 17:07:37.760428,1,5,probe,RECALL_BLACK_ON,74,2025-11-21 17:10:23.487199,165.682348,0.055116,,,,,,keyboard,probe black page,"{""note"":""probe black page"",""pd_used"":0}",2,0.008333,120.000000,1
Alavie_G01_CNS-LLF5HT7Y0,S01,OFFmed_OFFstim,20251121_170647,2025-11-21 17:07:37.760428,1,5,probe,DIGIT_RECALL_LINE_1,161,2025-11-21 17:10:23.541291,165.737464,0.548862,,1,,,,keyboard,first recall question,"{""value"":1,""note"":""first recall question"",""pd_used"":1}",2,0.008333,120.000000,1
Alavie_G01_CNS-LLF5HT7Y0,S01,OFFmed_OFFstim,20251121_170647,2025-11-21 17:07:37.760428,1,5,probe,PROBE_DIGIT_OK_1,71,2025-11-21 17:10:24.617215,166.286326,1.662468,0.614145,slot#1,NaN,,,keyboard,probe_digit#1,"{""value"":""slot#1"",""entered"":null,""rt"":0.61414460000014515,""note"":""probe_digit#1""}",2,0.008333,120.000000,1
Alavie_G01_CNS-LLF5HT7Y0,S01,OFFmed_OFFstim,20251121_170647,2025-11-21 17:07:37.760428,1,5,probe,DIGIT_RECALL_LINE_2,162,2025-11-21 17:10:25.752961,167.948794,0.758454,,2,,,,keyboard,next recall question,"{""value"":2,""note"":""next recall question"",""pd_used"":1}",2,0.008333,120.000000,1
Alavie_G01_CNS-LLF5HT7Y0,S01,OFFmed_OFFstim,20251121_170647,2025-11-21 17:07:37.760428,1,5,probe,PROBE_DIGIT_OK_2,71,2025-11-21 17:10:27.167005,168.707248,2.203545,3.035067,slot#2,NaN,,,keyboard,probe_digit#2,"{""value"":""slot#2"",""entered"":null,""rt"":3.0350665999976627,""note"":""probe_digit#2""}",2,0.008333,120.000000,1
Alavie_G01_CNS-LLF5HT7Y0,S01,OFFmed_OFFstim,20251121_170647,2025-11-21 17:07:37.760428,1,5,probe,DIGIT_RECALL_LINE_3,163,2025-11-21 17:10:28.716130,170.910793,0.700624,,3,,,,keyboard,next recall question,"{""value"":3,""note"":""next recall question"",""pd_used"":1}",2,0.008333,120.000000,1
Alavie_G01_CNS-LLF5HT7Y0,S01,OFFmed_OFFstim,20251121_170647,2025-11-21 17:07:37.760428,1,5,probe,PROBE_DIGIT_OK_3,71,2025-11-21 17:10:30.040538,171.611417,1.834798,5.939236,slot#3,NaN,,,keyboard,probe_digit#3,"{""value"":""slot#3"",""entered"":null,""rt"":5.939235900001222,""note"":""probe_digit#3""}",2,0.008333,120.000000,1
Alavie_G01_CNS-LLF5HT7Y0,S01,OFFmed_OFFstim,20251121_170647,2025-11-21 17:07:37.760428,1,5,probe,DIGIT_RECALL_LINE_4,164,2025-11-21 17:10:31.252435,173.446215,0.593825,,4,,,,keyboard,next recall question,"{""value"":4,""note"":""next recall question"",""pd_used"":1}",2,0.008333,120.000000,1
Alavie_G01_CNS-LLF5HT7Y0,S01,OFFmed_OFFstim,20251121_170647,2025-11-21 17:07:37.760428,1,5,probe,PROBE_DIGIT_OK_4,71,2025-11-21 17:10:32.446634,174.040040,1.713857,8.367859,slot#4,NaN,,,keyboard,probe_digit#4,"{""value"":""slot#4"",""entered"":null,""rt"":8.3678585999987263,""note"":""probe_digit#4""}",2,0.008333,120.000000,1
Alavie_G01_CNS-LLF5HT7Y0,S01,OFFmed_OFFstim,20251121_170647,2025-11-21 17:07:37.760428,1,5,probe,DIGIT_RECALL_LINE_5,165,2025-11-21 17:10:33.559565,175.753897,0.585560,,5,,,,keyboard,next recall question,"{""value"":5,""note"":""next recall question"",""pd_used"":1}",2,0.008333,120.000000,1
Alavie_G01_CNS-LLF5HT7Y0,S01,OFFmed_OFFstim,20251121_170647,2025-11-21 17:07:37.760428,1,5,probe,PROBE_DIGIT_OK_5,71,2025-11-21 17:10:34.600266,176.339457,1.578312,10.667275,slot#5,NaN,,,keyboard,probe_digit#5,"{""value"":""slot#5"",""entered"":null,""rt"":10.66727549999996,""note"":""probe_digit#5""}",2,0.008333,120.000000,1
Alavie_G01_CNS-LLF5HT7Y0,S01,OFFmed_OFFstim,20251121_170647,2025-11-21 17:07:37.760428,1,5,probe,PROBE_DONE,73,2025-11-21 17:10:35.679244,177.917768,0.002725,,,,,,keyboard,probe complete,"{""value"":"""",""note"":""probe complete""}",2,0.008333,120.000000,1
Alavie_G01_CNS-LLF5HT7Y0,S01,OFFmed_OFFstim,20251121_170647,2025-11-21 17:07:37.760428,1,5,probe,TRIAL_END,21,2025-11-21 17:10:35.681126,177.920494,0.046476,,,,,,keyboard,,{},2,0.008333,120.000000,1
Alavie_G01_CNS-LLF5HT7Y0,S01,OFFmed_OFFstim,20251121_170647,2025-11-21 17:07:37.760428,1,5,probe,BLOCK_END,11,2025-11-21 17:10:35.728135,177.966970,0.232630,,,,,,keyboard,,{},2,0.008333,120.000000,1
Alavie_G01_CNS-LLF5HT7Y0,S01,OFFmed_OFFstim,20251121_170647,2025-11-21 17:07:37.760428,1,5,probe,SESSION_END,3,2025-11-21 17:10:35.960108,178.199600,NaN,,,,,,keyboard,,{},2,0.008333,120.000000,1
