file_version,subject,condition,session,task_start_time,block,trial,phase,event_name,event_code,wall_clock,t_rel_sec,duration_to_next,rt,value_shown,entered_value,correct,key_name,device,note,json,screen_index,ifi,refresh_hz,pd_used
Sergio_G01_CNS-LLF5HT7Y0,S01,OFFmed_OFFstim,20260202_185419,2026-02-02 18:54:29.111440,NaN,NaN,,MIC_NOISEFLOOR,6,2026-02-02 18:54:30.389123,1.277358,4.099529,,,,,,keyboard,,{},1,NaN,NaN,1
Sergio_G01_CNS-LLF5HT7Y0,S01,OFFmed_OFFstim,20260202_185419,2026-02-02 18:54:29.111440,NaN,NaN,,MIC_REC_SPEECH,7,2026-02-02 18:54:34.488495,5.376887,6.618996,,,,,,keyboard,,{},1,NaN,NaN,1
Sergio_G01_CNS-LLF5HT7Y0,S01,OFFmed_OFFstim,20260202_185419,2026-02-02 18:54:29.111440,NaN,NaN,,SESSION_START,1,2026-02-02 18:54:52.985194,23.871572,0.004288,,,,,,keyboard,,{},1,0.004179,239.293758,1
Sergio_G01_CNS-LLF5HT7Y0,S01,OFFmed_OFFstim,20260202_185419,2026-02-02 18:54:29.111440,1,NaN,,BLOCK_START,10,2026-02-02 18:54:52.988305,23.875860,0.010154,,,,,,keyboard,,{},1,0.004179,239.293758,1
Sergio_G01_CNS-LLF5HT7Y0,S01,OFFmed_OFFstim,20260202_185419,2026-02-02 18:54:29.111440,1,0,reading,START_PAGE_ON,4,2026-02-02 18:54:52.998533,23.886014,0.005690,,,,,,keyboard,,"{""pd_used"":0}",1,0.004179,239.293758,1
Sergio_G01_CNS-LLF5HT7Y0,S01,OFFmed_OFFstim,20260202_185419,2026-02-02 18:54:29.111440,1,0,reading,START_PAGE_ON,4,2026-02-02 18:54:52.998533,23.886014,2.678847,,,,,,keyboard,,"{""pd_used"":0}",1,0.004179,239.293758,1
Sergio_G01_CNS-LLF5HT7Y0,S01,OFFmed_OFFstim,20260202_185419,2026-02-02 18:54:29.111440,1,0,reading,START_PAGE_ON,4,2026-02-02 18:54:52.998533,23.886014,2.985547,,,,,,keyboard,,"{""pd_used"":0}",1,0.004179,239.293758,1
Sergio_G01_CNS-LLF5HT7Y0,S01,OFFmed_OFFstim,20260202_185419,2026-02-02 18:54:29.111440,1,0,reading,READING_START,23,2026-02-02 18:54:55.984135,26.871561,0.007534,,,,,,keyboard,,{},1,0.004179,239.293758,1
Sergio_G01_CNS-LLF5HT7Y0,S01,OFFmed_OFFstim,20260202_185419,2026-02-02 18:54:29.111440,1,0,reading,DIGIT_READ1_ON,101,2026-02-02 18:54:55.991033,26.879095,2.351526,,2,,,,keyboard,digit#1 shown,"{""value"":2,""note"":""digit#1 shown"",""pd_used"":1}",1,0.004179,239.293758,1
Sergio_G01_CNS-LLF5HT7Y0,S01,OFFmed_OFFstim,20260202_185419,2026-02-02 18:54:29.111440,1,0,reading,PROBE_COUNT_OK_1,71,2026-02-02 18:54:58.860913,29.230621,0.522610,5.350342,slot#1,NaN,,,keyboard,probe_digit#1,"{""value"":""slot#1"",""entered"":null,""rt"":5.3503419999906328,""note"":""probe_digit#1""}",1,0.004179,239.293758,1
Sergio_G01_CNS-LLF5HT7Y0,S01,OFFmed_OFFstim,20260202_185419,2026-02-02 18:54:29.111440,1,0,reading,DIGIT_READ1_OFF,116,2026-02-02 18:54:58.865210,29.753230,0.000000,,2,,,,keyboard,digit#1 off,"{""value"":2,""note"":""digit#1 off"",""pd_used"":0}",1,0.004179,239.293758,1
Sergio_G01_CNS-LLF5HT7Y0,S01,OFFmed_OFFstim,20260202_185419,2026-02-02 18:54:29.111440,1,0,reading,POSTREAD_FIX1_ON,201,2026-02-02 18:54:58.867159,29.753230,1.581944,,,,,,keyboard,after digit#1,"{""note"":""after digit#1""}",1,0.004179,239.293758,1
Sergio_G01_CNS-LLF5HT7Y0,S01,OFFmed_OFFstim,20260202_185419,2026-02-02 18:54:29.111440,1,0,reading,POSTREAD_FIX1_OFF,216,2026-02-02 18:55:00.448010,31.335174,0.012123,,,,,,keyboard,after digit#1,"{""note"":""after digit#1"",""pd_used"":0}",1,0.004179,239.293758,1
Sergio_G01_CNS-LLF5HT7Y0,S01,OFFmed_OFFstim,20260202_185419,2026-02-02 18:54:29.111440,1,0,reading,DIGIT_READ2_ON,102,2026-02-02 18:55:00.459896,31.347297,0.531599,,9,,,,keyboard,digit#2 shown,"{""value"":9,""note"":""digit#2 shown"",""pd_used"":1}",1,0.004179,239.293758,1
Sergio_G01_CNS-LLF5HT7Y0,S01,OFFmed_OFFstim,20260202_185419,2026-02-02 18:54:29.111440,1,0,reading,PROBE_COUNT_OK_2,71,2026-02-02 18:55:01.597501,31.878896,0.610075,7.998618,slot#2,NaN,,,keyboard,probe_digit#2,"{""value"":""slot#2"",""entered"":null,""rt"":7.99861779998173,""note"":""probe_digit#2""}",1,0.004179,239.293758,1
Sergio_G01_CNS-LLF5HT7Y0,S01,OFFmed_OFFstim,20260202_185419,2026-02-02 18:54:29.111440,1,0,reading,DIGIT_READ2_OFF,117,2026-02-02 18:55:01.600859,32.488971,0.000000,,9,,,,keyboard,digit#2 off,"{""value"":9,""note"":""digit#2 off"",""pd_used"":0}",1,0.004179,239.293758,1
Sergio_G01_CNS-LLF5HT7Y0,S01,OFFmed_OFFstim,20260202_185419,2026-02-02 18:54:29.111440,1,0,reading,POSTREAD_FIX2_ON,202,2026-02-02 18:55:01.602364,32.488971,1.740757,,,,,,keyboard,after digit#2,"{""note"":""after digit#2""}",1,0.004179,239.293758,1
Sergio_G01_CNS-LLF5HT7Y0,S01,OFFmed_OFFstim,20260202_185419,2026-02-02 18:54:29.111440,1,0,reading,POSTREAD_FIX2_OFF,217,2026-02-02 18:55:03.342197,34.229729,0.012304,,,,,,keyboard,after digit#2,"{""note"":""after digit#2"",""pd_used"":0}",1,0.004179,239.293758,1
Sergio_G01_CNS-LLF5HT7Y0,S01,OFFmed_OFFstim,20260202_185419,2026-02-02 18:54:29.111440,1,0,reading,DIGIT_READ3_ON,103,2026-02-02 18:55:03.353981,34.242032,0.559617,,2,,,,keyboard,digit#3 shown,"{""value"":2,""note"":""digit#3 shown"",""pd_used"":1}",1,0.004179,239.293758,1
Sergio_G01_CNS-LLF5HT7Y0,S01,OFFmed_OFFstim,20260202_185419,2026-02-02 18:54:29.111440,1,0,reading,PROBE_COUNT_OK_3,71,2026-02-02 18:55:04.528619,34.801650,0.619002,10.921371,slot#3,NaN,,,keyboard,probe_digit#3,"{""value"":""slot#3"",""entered"":null,""rt"":10.921371099975659,""note"":""probe_digit#3""}",1,0.004179,239.293758,1
Sergio_G01_CNS-LLF5HT7Y0,S01,OFFmed_OFFstim,20260202_185419,2026-02-02 18:54:29.111440,1,0,reading,DIGIT_READ3_OFF,118,2026-02-02 18:55:04.532450,35.420652,0.000000,,2,,,,keyboard,digit#3 off,"{""value"":2,""note"":""digit#3 off"",""pd_used"":0}",1,0.004179,239.293758,1
Sergio_G01_CNS-LLF5HT7Y0,S01,OFFmed_OFFstim,20260202_185419,2026-02-02 18:54:29.111440,1,0,reading,POSTREAD_FIX3_ON,203,2026-02-02 18:55:04.533728,35.420652,1.706263,,,,,,keyboard,after digit#3,"{""note"":""after digit#3""}",1,0.004179,239.293758,1
Sergio_G01_CNS-LLF5HT7Y0,S01,OFFmed_OFFstim,20260202_185419,2026-02-02 18:54:29.111440,1,0,reading,POSTREAD_FIX3_OFF,218,2026-02-02 18:55:06.239422,37.126914,0.012109,,,,,,keyboard,after digit#3,"{""note"":""after digit#3"",""pd_used"":0}",1,0.004179,239.293758,1
Sergio_G01_CNS-LLF5HT7Y0,S01,OFFmed_OFFstim,20260202_185419,2026-02-02 18:54:29.111440,1,0,reading,DIGIT_READ4_ON,104,2026-02-02 18:55:06.251283,37.139024,0.591483,,6,,,,keyboard,digit#4 shown,"{""value"":6,""note"":""digit#4 shown"",""pd_used"":1}",1,0.004179,239.293758,1
Sergio_G01_CNS-LLF5HT7Y0,S01,OFFmed_OFFstim,20260202_185419,2026-02-02 18:54:29.111440,1,0,reading,PROBE_COUNT_OK_4,71,2026-02-02 18:55:07.358070,37.730507,0.519758,13.850228,slot#4,NaN,,,keyboard,probe_digit#4,"{""value"":""slot#4"",""entered"":null,""rt"":13.850228099996457,""note"":""probe_digit#4""}",1,0.004179,239.293758,1
Sergio_G01_CNS-LLF5HT7Y0,S01,OFFmed_OFFstim,20260202_185419,2026-02-02 18:54:29.111440,1,0,reading,DIGIT_READ4_OFF,119,2026-02-02 18:55:07.362162,38.250265,0.000000,,6,,,,keyboard,digit#4 off,"{""value"":6,""note"":""digit#4 off"",""pd_used"":0}",1,0.004179,239.293758,1
Sergio_G01_CNS-LLF5HT7Y0,S01,OFFmed_OFFstim,20260202_185419,2026-02-02 18:54:29.111440,1,0,reading,POSTREAD_FIX4_ON,204,2026-02-02 18:55:07.363815,38.250265,1.988308,,,,,,keyboard,after digit#4,"{""note"":""after digit#4""}",1,0.004179,239.293758,1
Sergio_G01_CNS-LLF5HT7Y0,S01,OFFmed_OFFstim,20260202_185419,2026-02-02 18:54:29.111440,1,0,reading,POSTREAD_FIX4_OFF,219,2026-02-02 18:55:09.351068,40.238573,0.012316,,,,,,keyboard,after digit#4,"{""note"":""after digit#4"",""pd_used"":0}",1,0.004179,239.293758,1
Sergio_G01_CNS-LLF5HT7Y0,S01,OFFmed_OFFstim,20260202_185419,2026-02-02 18:54:29.111440,1,0,reading,DIGIT_READ5_ON,105,2026-02-02 18:55:09.363306,40.250888,0.557622,,7,,,,keyboard,digit#5 shown,"{""value"":7,""note"":""digit#5 shown"",""pd_used"":1}",1,0.004179,239.293758,1
Sergio_G01_CNS-LLF5HT7Y0,S01,OFFmed_OFFstim,20260202_185419,2026-02-02 18:54:29.111440,1,0,reading,PROBE_COUNT_OK_5,71,2026-02-02 18:55:10.508344,40.808510,0.592190,16.928232,slot#5,NaN,,,keyboard,probe_digit#5,"{""value"":""slot#5"",""entered"":null,""rt"":16.928231800004141,""note"":""probe_digit#5""}",1,0.004179,239.293758,1
Sergio_G01_CNS-LLF5HT7Y0,S01,OFFmed_OFFstim,20260202_185419,2026-02-02 18:54:29.111440,1,0,reading,DIGIT_READ5_OFF,120,2026-02-02 18:55:10.512615,41.400701,0.000000,,7,,,,keyboard,digit#5 off,"{""value"":7,""note"":""digit#5 off"",""pd_used"":0}",1,0.004179,239.293758,1
Sergio_G01_CNS-LLF5HT7Y0,S01,OFFmed_OFFstim,20260202_185419,2026-02-02 18:54:29.111440,1,0,reading,POSTREAD_FIX5_ON,205,2026-02-02 18:55:10.514190,41.400701,1.741917,,,,,,keyboard,after digit#5,"{""note"":""after digit#5""}",1,0.004179,239.293758,1
Sergio_G01_CNS-LLF5HT7Y0,S01,OFFmed_OFFstim,20260202_185419,2026-02-02 18:54:29.111440,1,0,reading,POSTREAD_FIX5_OFF,220,2026-02-02 18:55:12.255379,43.142618,0.010271,,,,,,keyboard,after digit#5,"{""note"":""after digit#5"",""pd_used"":0}",1,0.004179,239.293758,1
Sergio_G01_CNS-LLF5HT7Y0,S01,OFFmed_OFFstim,20260202_185419,2026-02-02 18:54:29.111440,1,0,reading,DIGIT_READ6_ON,106,2026-02-02 18:55:12.265209,43.152889,0.899796,,4,,,,keyboard,digit#6 shown,"{""value"":4,""note"":""digit#6 shown"",""pd_used"":1}",1,0.004179,239.293758,1
Sergio_G01_CNS-LLF5HT7Y0,S01,OFFmed_OFFstim,20260202_185419,2026-02-02 18:54:29.111440,1,0,reading,PROBE_COUNT_OK_6,71,2026-02-02 18:55:13.858258,44.052685,0.698001,20.172406,slot#6,NaN,,,keyboard,probe_digit#6,"{""value"":""slot#6"",""entered"":null,""rt"":20.172406300000148,""note"":""probe_digit#6""}",1,0.004179,239.293758,1
Sergio_G01_CNS-LLF5HT7Y0,S01,OFFmed_OFFstim,20260202_185419,2026-02-02 18:54:29.111440,1,0,reading,DIGIT_READ6_OFF,121,2026-02-02 18:55:13.862615,44.750686,0.000000,,4,,,,keyboard,digit#6 off,"{""value"":4,""note"":""digit#6 off"",""pd_used"":0}",1,0.004179,239.293758,1
Sergio_G01_CNS-LLF5HT7Y0,S01,OFFmed_OFFstim,20260202_185419,2026-02-02 18:54:29.111440,1,0,reading,POSTREAD_FIX6_ON,206,2026-02-02 18:55:13.864136,44.750686,1.575980,,,,,,keyboard,after digit#6,"{""note"":""after digit#6""}",1,0.004179,239.293758,1
Sergio_G01_CNS-LLF5HT7Y0,S01,OFFmed_OFFstim,20260202_185419,2026-02-02 18:54:29.111440,1,0,reading,POSTREAD_FIX6_OFF,221,2026-02-02 18:55:15.439442,46.326666,0.012406,,,,,,keyboard,after digit#6,"{""note"":""after digit#6"",""pd_used"":0}",1,0.004179,239.293758,1
Sergio_G01_CNS-LLF5HT7Y0,S01,OFFmed_OFFstim,20260202_185419,2026-02-02 18:54:29.111440,1,0,reading,DIGIT_READ7_ON,107,2026-02-02 18:55:15.451401,46.339071,0.664090,,2,,,,keyboard,digit#7 shown,"{""value"":2,""note"":""digit#7 shown"",""pd_used"":1}",1,0.004179,239.293758,1
Sergio_G01_CNS-LLF5HT7Y0,S01,OFFmed_OFFstim,20260202_185419,2026-02-02 18:54:29.111440,1,0,reading,PROBE_COUNT_OK_7,71,2026-02-02 18:55:16.720009,47.003161,0.608699,23.122882,slot#7,NaN,,,keyboard,probe_digit#7,"{""value"":""slot#7"",""entered"":null,""rt"":23.122882199997548,""note"":""probe_digit#7""}",1,0.004179,239.293758,1
Sergio_G01_CNS-LLF5HT7Y0,S01,OFFmed_OFFstim,20260202_185419,2026-02-02 18:54:29.111440,1,0,reading,DIGIT_READ7_OFF,122,2026-02-02 18:55:16.723833,47.611860,0.000000,,2,,,,keyboard,digit#7 off,"{""value"":2,""note"":""digit#7 off"",""pd_used"":0}",1,0.004179,239.293758,1
Sergio_G01_CNS-LLF5HT7Y0,S01,OFFmed_OFFstim,20260202_185419,2026-02-02 18:54:29.111440,1,0,reading,POSTREAD_FIX7_ON,207,2026-02-02 18:55:16.725585,47.611860,1.630187,,,,,,keyboard,after digit#7,"{""note"":""after digit#7""}",1,0.004179,239.293758,1
Sergio_G01_CNS-LLF5HT7Y0,S01,OFFmed_OFFstim,20260202_185419,2026-02-02 18:54:29.111440,1,0,reading,POSTREAD_FIX7_OFF,222,2026-02-02 18:55:18.354674,49.242046,0.010323,,,,,,keyboard,after digit#7,"{""note"":""after digit#7"",""pd_used"":0}",1,0.004179,239.293758,1
Sergio_G01_CNS-LLF5HT7Y0,S01,OFFmed_OFFstim,20260202_185419,2026-02-02 18:54:29.111440,1,0,reading,DIGIT_READ8_ON,108,2026-02-02 18:55:18.364527,49.252369,0.619355,,2,,,,keyboard,digit#8 shown,"{""value"":2,""note"":""digit#8 shown"",""pd_used"":1}",1,0.004179,239.293758,1
Sergio_G01_CNS-LLF5HT7Y0,S01,OFFmed_OFFstim,20260202_185419,2026-02-02 18:54:29.111440,1,0,reading,PROBE_COUNT_OK_8,71,2026-02-02 18:55:19.558559,49.871724,0.578855,25.991445,slot#8,NaN,,,keyboard,probe_digit#8,"{""value"":""slot#8"",""entered"":null,""rt"":25.991445399995428,""note"":""probe_digit#8""}",1,0.004179,239.293758,1
Sergio_G01_CNS-LLF5HT7Y0,S01,OFFmed_OFFstim,20260202_185419,2026-02-02 18:54:29.111440,1,0,reading,DIGIT_READ8_OFF,123,2026-02-02 18:55:19.562582,50.450579,0.000000,,2,,,,keyboard,digit#8 off,"{""value"":2,""note"":""digit#8 off"",""pd_used"":0}",1,0.004179,239.293758,1
Sergio_G01_CNS-LLF5HT7Y0,S01,OFFmed_OFFstim,20260202_185419,2026-02-02 18:54:29.111440,1,0,reading,POSTREAD_FIX8_ON,208,2026-02-02 18:55:19.564165,50.450579,1.649096,,,,,,keyboard,after digit#8,"{""note"":""after digit#8""}",1,0.004179,239.293758,1
Sergio_G01_CNS-LLF5HT7Y0,S01,OFFmed_OFFstim,20260202_185419,2026-02-02 18:54:29.111440,1,0,reading,POSTREAD_FIX8_OFF,223,2026-02-02 18:55:21.212317,52.099675,0.010219,,,,,,keyboard,after digit#8,"{""note"":""after digit#8"",""pd_used"":0}",1,0.004179,239.293758,1
Sergio_G01_CNS-LLF5HT7Y0,S01,OFFmed_OFFstim,20260202_185419,2026-02-02 18:54:29.111440,1,0,reading,DIGIT_READ9_ON,109,2026-02-02 18:55:21.222026,52.109894,0.621449,,9,,,,keyboard,digit#9 shown,"{""value"":9,""note"":""digit#9 shown"",""pd_used"":1}",1,0.004179,239.293758,1
Sergio_G01_CNS-LLF5HT7Y0,S01,OFFmed_OFFstim,20260202_185419,2026-02-02 18:54:29.111440,1,0,reading,PROBE_COUNT_OK_9,71,2026-02-02 18:55:22.470851,52.731343,0.631514,28.851064,slot#9,NaN,,,keyboard,probe_digit#9,"{""value"":""slot#9"",""entered"":null,""rt"":28.85106449999148,""note"":""probe_digit#9""}",1,0.004179,239.293758,1
Sergio_G01_CNS-LLF5HT7Y0,S01,OFFmed_OFFstim,20260202_185419,2026-02-02 18:54:29.111440,1,0,reading,DIGIT_READ9_OFF,124,2026-02-02 18:55:22.474798,53.362857,0.000000,,9,,,,keyboard,digit#9 off,"{""value"":9,""note"":""digit#9 off"",""pd_used"":0}",1,0.004179,239.293758,1
Sergio_G01_CNS-LLF5HT7Y0,S01,OFFmed_OFFstim,20260202_185419,2026-02-02 18:54:29.111440,1,0,reading,POSTREAD_FIX9_ON,209,2026-02-02 18:55:22.476648,53.362857,1.606347,,,,,,keyboard,after digit#9,"{""note"":""after digit#9""}",1,0.004179,239.293758,1
Sergio_G01_CNS-LLF5HT7Y0,S01,OFFmed_OFFstim,20260202_185419,2026-02-02 18:54:29.111440,1,0,reading,POSTREAD_FIX9_OFF,224,2026-02-02 18:55:24.081778,54.969204,0.010288,,,,,,keyboard,after digit#9,"{""note"":""after digit#9"",""pd_used"":0}",1,0.004179,239.293758,1
Sergio_G01_CNS-LLF5HT7Y0,S01,OFFmed_OFFstim,20260202_185419,2026-02-02 18:54:29.111440,1,0,reading,DIGIT_READ10_ON,110,2026-02-02 18:55:24.091436,54.979492,0.546625,,4,,,,keyboard,digit#10 shown,"{""value"":4,""note"":""digit#10 shown"",""pd_used"":1}",1,0.004179,239.293758,1
Sergio_G01_CNS-LLF5HT7Y0,S01,OFFmed_OFFstim,20260202_185419,2026-02-02 18:54:29.111440,1,0,reading,PROBE_COUNT_OK_10,71,2026-02-02 18:55:25.299246,55.526116,0.664930,31.645838,slot#10,NaN,,,keyboard,probe_digit#10,"{""value"":""slot#10"",""entered"":null,""rt"":31.645837699994445,""note"":""probe_digit#10""}",1,0.004179,239.293758,1
Sergio_G01_CNS-LLF5HT7Y0,S01,OFFmed_OFFstim,20260202_185419,2026-02-02 18:54:29.111440,1,0,reading,DIGIT_READ10_OFF,125,2026-02-02 18:55:25.302954,56.191046,0.000000,,4,,,,keyboard,digit#10 off,"{""value"":4,""note"":""digit#10 off"",""pd_used"":0}",1,0.004179,239.293758,1
Sergio_G01_CNS-LLF5HT7Y0,S01,OFFmed_OFFstim,20260202_185419,2026-02-02 18:54:29.111440,1,0,reading,POSTREAD_FIX10_ON,210,2026-02-02 18:55:25.304627,56.191046,3.334232,,,,,,keyboard,after digit#10,"{""note"":""after digit#10""}",1,0.004179,239.293758,1
Sergio_G01_CNS-LLF5HT7Y0,S01,OFFmed_OFFstim,20260202_185419,2026-02-02 18:54:29.111440,1,0,reading,POSTREAD_FIX10_OFF,225,2026-02-02 18:55:28.637925,59.525278,0.012291,,,,,,keyboard,after digit#10,"{""note"":""after digit#10"",""pd_used"":0}",1,0.004179,239.293758,1
Sergio_G01_CNS-LLF5HT7Y0,S01,OFFmed_OFFstim,20260202_185419,2026-02-02 18:54:29.111440,1,0,reading,DIGIT_READ11_ON,111,2026-02-02 18:55:28.649762,59.537569,0.594458,,4,,,,keyboard,digit#11 shown,"{""value"":4,""note"":""digit#11 shown"",""pd_used"":1}",1,0.004179,239.293758,1
Sergio_G01_CNS-LLF5HT7Y0,S01,OFFmed_OFFstim,20260202_185419,2026-02-02 18:54:29.111440,1,0,reading,PROBE_COUNT_OK_11,71,2026-02-02 18:55:29.879291,60.132027,0.639164,36.251748,slot#11,NaN,,,keyboard,probe_digit#11,"{""value"":""slot#11"",""entered"":null,""rt"":36.2517481999821,""note"":""probe_digit#11""}",1,0.004179,239.293758,1
Sergio_G01_CNS-LLF5HT7Y0,S01,OFFmed_OFFstim,20260202_185419,2026-02-02 18:54:29.111440,1,0,reading,DIGIT_READ11_OFF,126,2026-02-02 18:55:29.883053,60.771191,0.000000,,4,,,,keyboard,digit#11 off,"{""value"":4,""note"":""digit#11 off"",""pd_used"":0}",1,0.004179,239.293758,1
Sergio_G01_CNS-LLF5HT7Y0,S01,OFFmed_OFFstim,20260202_185419,2026-02-02 18:54:29.111440,1,0,reading,POSTREAD_FIX11_ON,211,2026-02-02 18:55:29.884761,60.771191,3.493465,,,,,,keyboard,after digit#11,"{""note"":""after digit#11""}",1,0.004179,239.293758,1
Sergio_G01_CNS-LLF5HT7Y0,S01,OFFmed_OFFstim,20260202_185419,2026-02-02 18:54:29.111440,1,0,reading,POSTREAD_FIX11_OFF,226,2026-02-02 18:55:33.377115,64.264656,0.012420,,,,,,keyboard,after digit#11,"{""note"":""after digit#11"",""pd_used"":0}",1,0.004179,239.293758,1
Sergio_G01_CNS-LLF5HT7Y0,S01,OFFmed_OFFstim,20260202_185419,2026-02-02 18:54:29.111440,1,0,reading,DIGIT_READ12_ON,112,2026-02-02 18:55:33.390078,64.277076,0.511738,,9,,,,keyboard,digit#12 shown,"{""value"":9,""note"":""digit#12 shown"",""pd_used"":1}",1,0.004179,239.293758,1
Sergio_G01_CNS-LLF5HT7Y0,S01,OFFmed_OFFstim,20260202_185419,2026-02-02 18:54:29.111440,1,0,reading,PROBE_COUNT_OK_12,71,2026-02-02 18:55:34.459059,64.788814,0.561716,40.908535,slot#12,NaN,,,keyboard,probe_digit#12,"{""value"":""slot#12"",""entered"":null,""rt"":40.908535399998073,""note"":""probe_digit#12""}",1,0.004179,239.293758,1
Sergio_G01_CNS-LLF5HT7Y0,S01,OFFmed_OFFstim,20260202_185419,2026-02-02 18:54:29.111440,1,0,reading,DIGIT_READ12_OFF,127,2026-02-02 18:55:34.462430,65.350530,0.000000,,9,,,,keyboard,digit#12 off,"{""value"":9,""note"":""digit#12 off"",""pd_used"":0}",1,0.004179,239.293758,1
Sergio_G01_CNS-LLF5HT7Y0,S01,OFFmed_OFFstim,20260202_185419,2026-02-02 18:54:29.111440,1,0,reading,POSTREAD_FIX12_ON,212,2026-02-02 18:55:34.464047,65.350530,3.461280,,,,,,keyboard,after digit#12,"{""note"":""after digit#12""}",1,0.004179,239.293758,1
Sergio_G01_CNS-LLF5HT7Y0,S01,OFFmed_OFFstim,20260202_185419,2026-02-02 18:54:29.111440,1,0,reading,POSTREAD_FIX12_OFF,227,2026-02-02 18:55:37.924579,68.811810,0.010282,,,,,,keyboard,after digit#12,"{""note"":""after digit#12"",""pd_used"":0}",1,0.004179,239.293758,1
Sergio_G01_CNS-LLF5HT7Y0,S01,OFFmed_OFFstim,20260202_185419,2026-02-02 18:54:29.111440,1,0,reading,DIGIT_READ13_ON,113,2026-02-02 18:55:37.934628,68.822092,0.578489,,8,,,,keyboard,digit#13 shown,"{""value"":8,""note"":""digit#13 shown"",""pd_used"":1}",1,0.004179,239.293758,1
Sergio_G01_CNS-LLF5HT7Y0,S01,OFFmed_OFFstim,20260202_185419,2026-02-02 18:54:29.111440,1,0,reading,PROBE_COUNT_OK_13,71,2026-02-02 18:55:39.049187,69.400581,0.540507,45.520303,slot#13,NaN,,,keyboard,probe_digit#13,"{""value"":""slot#13"",""entered"":null,""rt"":45.520302599994466,""note"":""probe_digit#13""}",1,0.004179,239.293758,1
Sergio_G01_CNS-LLF5HT7Y0,S01,OFFmed_OFFstim,20260202_185419,2026-02-02 18:54:29.111440,1,0,reading,DIGIT_READ13_OFF,128,2026-02-02 18:55:39.052915,69.941088,0.000000,,8,,,,keyboard,digit#13 off,"{""value"":8,""note"":""digit#13 off"",""pd_used"":0}",1,0.004179,239.293758,1
Sergio_G01_CNS-LLF5HT7Y0,S01,OFFmed_OFFstim,20260202_185419,2026-02-02 18:54:29.111440,1,0,reading,POSTREAD_FIX13_ON,213,2026-02-02 18:55:39.054555,69.941088,3.162272,,,,,,keyboard,after digit#13,"{""note"":""after digit#13""}",1,0.004179,239.293758,1
Sergio_G01_CNS-LLF5HT7Y0,S01,OFFmed_OFFstim,20260202_185419,2026-02-02 18:54:29.111440,1,0,reading,POSTREAD_FIX13_OFF,228,2026-02-02 18:55:42.216099,73.103360,0.011940,,,,,,keyboard,after digit#13,"{""note"":""after digit#13"",""pd_used"":0}",1,0.004179,239.293758,1
Sergio_G01_CNS-LLF5HT7Y0,S01,OFFmed_OFFstim,20260202_185419,2026-02-02 18:54:29.111440,1,0,reading,DIGIT_READ14_ON,114,2026-02-02 18:55:42.227315,73.115300,0.573675,,9,,,,keyboard,digit#14 shown,"{""value"":9,""note"":""digit#14 shown"",""pd_used"":1}",1,0.004179,239.293758,1
Sergio_G01_CNS-LLF5HT7Y0,S01,OFFmed_OFFstim,20260202_185419,2026-02-02 18:54:29.111440,1,0,reading,PROBE_COUNT_OK_14,71,2026-02-02 18:55:43.338780,73.688975,0.541613,49.808696,slot#14,NaN,,,keyboard,probe_digit#14,"{""value"":""slot#14"",""entered"":null,""rt"":49.808696499996586,""note"":""probe_digit#14""}",1,0.004179,239.293758,1
Sergio_G01_CNS-LLF5HT7Y0,S01,OFFmed_OFFstim,20260202_185419,2026-02-02 18:54:29.111440,1,0,reading,DIGIT_READ14_OFF,129,2026-02-02 18:55:43.342436,74.230588,0.000000,,9,,,,keyboard,digit#14 off,"{""value"":9,""note"":""digit#14 off"",""pd_used"":0}",1,0.004179,239.293758,1
Sergio_G01_CNS-LLF5HT7Y0,S01,OFFmed_OFFstim,20260202_185419,2026-02-02 18:54:29.111440,1,0,reading,POSTREAD_FIX14_ON,214,2026-02-02 18:55:43.343896,74.230588,3.121669,,,,,,keyboard,after digit#14,"{""note"":""after digit#14""}",1,0.004179,239.293758,1
Sergio_G01_CNS-LLF5HT7Y0,S01,OFFmed_OFFstim,20260202_185419,2026-02-02 18:54:29.111440,1,0,reading,POSTREAD_FIX14_OFF,229,2026-02-02 18:55:46.464929,77.352257,0.012207,,,,,,keyboard,after digit#14,"{""note"":""after digit#14"",""pd_used"":0}",1,0.004179,239.293758,1
Sergio_G01_CNS-LLF5HT7Y0,S01,OFFmed_OFFstim,20260202_185419,2026-02-02 18:54:29.111440,1,0,reading,DIGIT_READ15_ON,115,2026-02-02 18:55:46.477001,77.364464,0.690705,,0,,,,keyboard,digit#15 shown,"{""value"":0,""note"":""digit#15 shown"",""pd_used"":1}",1,0.004179,239.293758,1
Sergio_G01_CNS-LLF5HT7Y0,S01,OFFmed_OFFstim,20260202_185419,2026-02-02 18:54:29.111440,1,0,reading,PROBE_COUNT_OK_15,71,2026-02-02 18:55:47.779679,78.055169,0.616426,54.174891,slot#15,NaN,,,keyboard,probe_digit#15,"{""value"":""slot#15"",""entered"":null,""rt"":54.174890700000105,""note"":""probe_digit#15""}",1,0.004179,239.293758,1
Sergio_G01_CNS-LLF5HT7Y0,S01,OFFmed_OFFstim,20260202_185419,2026-02-02 18:54:29.111440,1,0,reading,DIGIT_READ15_OFF,130,2026-02-02 18:55:47.783483,78.671596,0.000000,,0,,,,keyboard,digit#15 off,"{""value"":0,""note"":""digit#15 off"",""pd_used"":0}",1,0.004179,239.293758,1
Sergio_G01_CNS-LLF5HT7Y0,S01,OFFmed_OFFstim,20260202_185419,2026-02-02 18:54:29.111440,1,0,reading,POSTREAD_FIX15_ON,215,2026-02-02 18:55:47.785031,78.671596,3.374890,,,,,,keyboard,after digit#15,"{""note"":""after digit#15""}",1,0.004179,239.293758,1
Sergio_G01_CNS-LLF5HT7Y0,S01,OFFmed_OFFstim,20260202_185419,2026-02-02 18:54:29.111440,1,0,reading,POSTREAD_FIX15_OFF,230,2026-02-02 18:55:51.159245,82.046486,0.004853,,,,,,keyboard,after digit#15,"{""note"":""after digit#15"",""pd_used"":0}",1,0.004179,239.293758,1
Sergio_G01_CNS-LLF5HT7Y0,S01,OFFmed_OFFstim,20260202_185419,2026-02-02 18:54:29.111440,1,0,reading,READING_END,24,2026-02-02 18:55:51.162893,82.051339,0.007328,,,,,,keyboard,,{},1,0.004179,239.293758,1
Sergio_G01_CNS-LLF5HT7Y0,S01,OFFmed_OFFstim,20260202_185419,2026-02-02 18:54:29.111440,1,0,reading,START_PAGE_ON,4,2026-02-02 18:55:51.170614,82.058668,0.010682,,,,,,keyboard,,"{""pd_used"":0}",1,0.004179,239.293758,1
Sergio_G01_CNS-LLF5HT7Y0,S01,OFFmed_OFFstim,20260202_185419,2026-02-02 18:54:29.111440,1,0,reading,START_PAGE_ON,4,2026-02-02 18:55:51.170614,82.058668,1.210297,,,,,,keyboard,,"{""pd_used"":0}",1,0.004179,239.293758,1
Sergio_G01_CNS-LLF5HT7Y0,S01,OFFmed_OFFstim,20260202_185419,2026-02-02 18:54:29.111440,1,0,reading,START_PAGE_ON,4,2026-02-02 18:55:51.170614,82.058668,1.515739,,,,,,keyboard,,"{""pd_used"":0}",1,0.004179,239.293758,1
Sergio_G01_CNS-LLF5HT7Y0,S01,OFFmed_OFFstim,20260202_185419,2026-02-02 18:54:29.111440,1,1,reading,TRIAL_CHANGE,22,2026-02-02 18:55:52.687094,83.574406,0.002937,,,,,,keyboard,trial transition,"{""note"":""trial transition""}",1,0.004179,239.293758,1
Sergio_G01_CNS-LLF5HT7Y0,S01,OFFmed_OFFstim,20260202_185419,2026-02-02 18:54:29.111440,1,1,reading,TRIAL_START,20,2026-02-02 18:55:52.689321,83.577344,0.004547,,,,,,keyboard,,{},1,0.004179,239.293758,1
Sergio_G01_CNS-LLF5HT7Y0,S01,OFFmed_OFFstim,20260202_185419,2026-02-02 18:54:29.111440,1,1,fix1,FIX1_ON,30,2026-02-02 18:55:52.693827,83.581891,3.354728,,,,,,keyboard,,"{""pd_used"":0}",1,0.004179,239.293758,1
Sergio_G01_CNS-LLF5HT7Y0,S01,OFFmed_OFFstim,20260202_185419,2026-02-02 18:54:29.111440,1,1,fix1,FIX1_OFF,31,2026-02-02 18:55:56.048937,86.936619,0.004451,,,,,,keyboard,,"{""pd_used"":0}",1,0.004179,239.293758,1
Sergio_G01_CNS-LLF5HT7Y0,S01,OFFmed_OFFstim,20260202_185419,2026-02-02 18:54:29.111440,1,1,digit,DIGIT1_ON,141,2026-02-02 18:55:56.052921,86.941070,0.504155,,5,,,,keyboard,digit#1 shown,"{""value"":5,""note"":""digit#1 shown"",""pd_used"":1}",1,0.004179,239.293758,1
Sergio_G01_CNS-LLF5HT7Y0,S01,OFFmed_OFFstim,20260202_185419,2026-02-02 18:54:29.111440,1,1,digit,DIGIT1_OFF,146,2026-02-02 18:55:56.557769,87.445225,0.000000,,5,,,,keyboard,digit#1 off,"{""value"":5,""note"":""digit#1 off"",""pd_used"":0}",1,0.004179,239.293758,1
Sergio_G01_CNS-LLF5HT7Y0,S01,OFFmed_OFFstim,20260202_185419,2026-02-02 18:54:29.111440,1,1,digit,POSTDIG_FIX1_ON,151,2026-02-02 18:55:56.559643,87.445225,1.767621,,,,,,keyboard,after digit#1,"{""note"":""after digit#1""}",1,0.004179,239.293758,1
Sergio_G01_CNS-LLF5HT7Y0,S01,OFFmed_OFFstim,20260202_185419,2026-02-02 18:54:29.111440,1,1,digit,POSTDIG_FIX1_OFF,156,2026-02-02 18:55:58.325662,89.212846,0.005187,,,,,,keyboard,after digit#1,"{""note"":""after digit#1"",""pd_used"":0}",1,0.004179,239.293758,1
Sergio_G01_CNS-LLF5HT7Y0,S01,OFFmed_OFFstim,20260202_185419,2026-02-02 18:54:29.111440,1,1,digit,DIGIT2_ON,142,2026-02-02 18:55:58.330097,89.218032,0.506022,,4,,,,keyboard,digit#2 shown,"{""value"":4,""note"":""digit#2 shown"",""pd_used"":1}",1,0.004179,239.293758,1
Sergio_G01_CNS-LLF5HT7Y0,S01,OFFmed_OFFstim,20260202_185419,2026-02-02 18:54:29.111440,1,1,digit,DIGIT2_OFF,147,2026-02-02 18:55:58.836511,89.724054,0.000000,,4,,,,keyboard,digit#2 off,"{""value"":4,""note"":""digit#2 off"",""pd_used"":0}",1,0.004179,239.293758,1
Sergio_G01_CNS-LLF5HT7Y0,S01,OFFmed_OFFstim,20260202_185419,2026-02-02 18:54:29.111440,1,1,digit,POSTDIG_FIX2_ON,152,2026-02-02 18:55:58.837334,89.724054,1.568321,,,,,,keyboard,after digit#2,"{""note"":""after digit#2""}",1,0.004179,239.293758,1
Sergio_G01_CNS-LLF5HT7Y0,S01,OFFmed_OFFstim,20260202_185419,2026-02-02 18:54:29.111440,1,1,digit,POSTDIG_FIX2_OFF,157,2026-02-02 18:56:00.405266,91.292376,0.005557,,,,,,keyboard,after digit#2,"{""note"":""after digit#2"",""pd_used"":0}",1,0.004179,239.293758,1
Sergio_G01_CNS-LLF5HT7Y0,S01,OFFmed_OFFstim,20260202_185419,2026-02-02 18:54:29.111440,1,1,digit,DIGIT3_ON,143,2026-02-02 18:56:00.410069,91.297933,0.503959,,9,,,,keyboard,digit#3 shown,"{""value"":9,""note"":""digit#3 shown"",""pd_used"":1}",1,0.004179,239.293758,1
Sergio_G01_CNS-LLF5HT7Y0,S01,OFFmed_OFFstim,20260202_185419,2026-02-02 18:54:29.111440,1,1,digit,DIGIT3_OFF,148,2026-02-02 18:56:00.914343,91.801892,0.000000,,9,,,,keyboard,digit#3 off,"{""value"":9,""note"":""digit#3 off"",""pd_used"":0}",1,0.004179,239.293758,1
Sergio_G01_CNS-LLF5HT7Y0,S01,OFFmed_OFFstim,20260202_185419,2026-02-02 18:54:29.111440,1,1,digit,POSTDIG_FIX3_ON,153,2026-02-02 18:56:00.916277,91.801892,1.576739,,,,,,keyboard,after digit#3,"{""note"":""after digit#3""}",1,0.004179,239.293758,1
Sergio_G01_CNS-LLF5HT7Y0,S01,OFFmed_OFFstim,20260202_185419,2026-02-02 18:54:29.111440,1,1,digit,POSTDIG_FIX3_OFF,158,2026-02-02 18:56:02.491155,93.378631,0.004626,,,,,,keyboard,after digit#3,"{""note"":""after digit#3"",""pd_used"":0}",1,0.004179,239.293758,1
Sergio_G01_CNS-LLF5HT7Y0,S01,OFFmed_OFFstim,20260202_185419,2026-02-02 18:54:29.111440,1,1,digit,DIGIT4_ON,144,2026-02-02 18:56:02.495422,93.383256,0.504221,,2,,,,keyboard,digit#4 shown,"{""value"":2,""note"":""digit#4 shown"",""pd_used"":1}",1,0.004179,239.293758,1
Sergio_G01_CNS-LLF5HT7Y0,S01,OFFmed_OFFstim,20260202_185419,2026-02-02 18:54:29.111440,1,1,digit,DIGIT4_OFF,149,2026-02-02 18:56:02.999761,93.887477,0.000000,,2,,,,keyboard,digit#4 off,"{""value"":2,""note"":""digit#4 off"",""pd_used"":0}",1,0.004179,239.293758,1
Sergio_G01_CNS-LLF5HT7Y0,S01,OFFmed_OFFstim,20260202_185419,2026-02-02 18:54:29.111440,1,1,digit,POSTDIG_FIX4_ON,154,2026-02-02 18:56:03.001366,93.887477,1.921444,,,,,,keyboard,after digit#4,"{""note"":""after digit#4""}",1,0.004179,239.293758,1
Sergio_G01_CNS-LLF5HT7Y0,S01,OFFmed_OFFstim,20260202_185419,2026-02-02 18:54:29.111440,1,1,digit,POSTDIG_FIX4_OFF,159,2026-02-02 18:56:04.921240,95.808921,0.004319,,,,,,keyboard,after digit#4,"{""note"":""after digit#4"",""pd_used"":0}",1,0.004179,239.293758,1
Sergio_G01_CNS-LLF5HT7Y0,S01,OFFmed_OFFstim,20260202_185419,2026-02-02 18:54:29.111440,1,1,digit,DIGIT5_ON,145,2026-02-02 18:56:04.925108,95.813240,0.503764,,5,,,,keyboard,digit#5 shown,"{""value"":5,""note"":""digit#5 shown"",""pd_used"":1}",1,0.004179,239.293758,1
Sergio_G01_CNS-LLF5HT7Y0,S01,OFFmed_OFFstim,20260202_185419,2026-02-02 18:54:29.111440,1,1,digit,DIGIT5_OFF,150,2026-02-02 18:56:05.429311,96.317005,0.000000,,5,,,,keyboard,digit#5 off,"{""value"":5,""note"":""digit#5 off"",""pd_used"":0}",1,0.004179,239.293758,1
Sergio_G01_CNS-LLF5HT7Y0,S01,OFFmed_OFFstim,20260202_185419,2026-02-02 18:54:29.111440,1,1,digit,POSTDIG_FIX5_ON,155,2026-02-02 18:56:05.431318,96.317005,3.010140,,,,,,keyboard,after digit#5,"{""note"":""after digit#5""}",1,0.004179,239.293758,1
Sergio_G01_CNS-LLF5HT7Y0,S01,OFFmed_OFFstim,20260202_185419,2026-02-02 18:54:29.111440,1,1,digit,POSTDIG_FIX5_OFF,160,2026-02-02 18:56:08.439834,99.327145,0.006702,,,,,,keyboard,after digit#5,"{""note"":""after digit#5"",""pd_used"":0}",1,0.004179,239.293758,1
Sergio_G01_CNS-LLF5HT7Y0,S01,OFFmed_OFFstim,20260202_185419,2026-02-02 18:54:29.111440,1,1,distractor,DISTRACTOR_ON,50,2026-02-02 18:56:08.445940,99.333847,1.087574,,2+2=5,,,,keyboard,,"{""value"":""2+2=5"",""isCorrectTruth"":false,""trueSum"":4,""pd_used"":1}",1,0.004179,239.293758,1
Sergio_G01_CNS-LLF5HT7Y0,S01,OFFmed_OFFstim,20260202_185419,2026-02-02 18:54:29.111440,1,1,distractor,DISTRACTOR_ANS,51,2026-02-02 18:56:10.120459,100.421421,0.000000,1.087574,2+2=5,F,1,,keyboard,key= (False),"{""value"":""2+2=5"",""entered"":""F"",""rt"":1.0875741000054404,""correct"":1,""note"":""key= (False)"",""truth"":false,""trueSum"":4,""shownSum"":5,""a"":2,""b"":2}",1,0.004179,239.293758,1
Sergio_G01_CNS-LLF5HT7Y0,S01,OFFmed_OFFstim,20260202_185419,2026-02-02 18:54:29.111440,1,1,distractor,ANS_CORRECT,100,2026-02-02 18:56:10.122611,100.421421,0.592966,,,,,,keyboard,,{},1,0.004179,239.293758,1
Sergio_G01_CNS-LLF5HT7Y0,S01,OFFmed_OFFstim,20260202_185419,2026-02-02 18:54:29.111440,1,1,distractor,DISTRACTOR_OFF,52,2026-02-02 18:56:10.126525,101.014387,0.000000,,,,,,keyboard,,"{""pd_used"":0}",1,0.004179,239.293758,1
Sergio_G01_CNS-LLF5HT7Y0,S01,OFFmed_OFFstim,20260202_185419,2026-02-02 18:54:29.111440,1,1,distractor,FIX2_ON,60,2026-02-02 18:56:10.128190,101.014387,3.012479,,,,,,keyboard,immediate after response,"{""note"":""immediate after response""}",1,0.004179,239.293758,1
Sergio_G01_CNS-LLF5HT7Y0,S01,OFFmed_OFFstim,20260202_185419,2026-02-02 18:54:29.111440,1,1,fix2,FIX2_OFF,61,2026-02-02 18:56:13.138984,104.026866,0.003353,,,,,,keyboard,,"{""pd_used"":0}",1,0.004179,239.293758,1
Sergio_G01_CNS-LLF5HT7Y0,S01,OFFmed_OFFstim,20260202_185419,2026-02-02 18:54:29.111440,1,1,probe,DIGIT_RECALL_LINE_1,161,2026-02-02 18:56:13.141619,104.030219,1.153784,,1,,,,keyboard,first recall question,"{""value"":1,""note"":""first recall question"",""pd_used"":1}",1,0.004179,239.293758,1
Sergio_G01_CNS-LLF5HT7Y0,S01,OFFmed_OFFstim,20260202_185419,2026-02-02 18:54:29.111440,1,1,probe,PROBE_DIGIT_OK_1,71,2026-02-02 18:56:14.846895,105.184003,0.554746,1.155418,slot#1,NaN,,,keyboard,probe_digit#1,"{""value"":""slot#1"",""entered"":null,""rt"":1.1554176000063308,""note"":""probe_digit#1""}",1,0.004179,239.293758,1
Sergio_G01_CNS-LLF5HT7Y0,S01,OFFmed_OFFstim,20260202_185419,2026-02-02 18:54:29.111440,1,1,probe,DIGIT1_OFF,146,2026-02-02 18:56:14.850605,105.738749,0.000000,,5,,,,keyboard,digit#1 off,"{""value"":5,""note"":""digit#1 off"",""pd_used"":0}",1,0.004179,239.293758,1
Sergio_G01_CNS-LLF5HT7Y0,S01,OFFmed_OFFstim,20260202_185419,2026-02-02 18:54:29.111440,1,1,probe,POSTDIG_FIX1_ON,151,2026-02-02 18:56:14.852269,105.738749,1.700694,,,,,,keyboard,after digit#1,"{""note"":""after digit#1""}",1,0.004179,239.293758,1
Sergio_G01_CNS-LLF5HT7Y0,S01,OFFmed_OFFstim,20260202_185419,2026-02-02 18:54:29.111440,1,1,probe,POSTDIG_FIX1_OFF,156,2026-02-02 18:56:16.551769,107.439443,0.012206,,,,,,keyboard,after digit#1,"{""note"":""after digit#1"",""pd_used"":0}",1,0.004179,239.293758,1
Sergio_G01_CNS-LLF5HT7Y0,S01,OFFmed_OFFstim,20260202_185419,2026-02-02 18:54:29.111440,1,1,probe,DIGIT_RECALL_LINE_2,162,2026-02-02 18:56:16.563797,107.451649,0.506522,,2,,,,keyboard,next recall question,"{""value"":2,""note"":""next recall question"",""pd_used"":1}",1,0.004179,239.293758,1
Sergio_G01_CNS-LLF5HT7Y0,S01,OFFmed_OFFstim,20260202_185419,2026-02-02 18:54:29.111440,1,1,probe,PROBE_DIGIT_OK_2,71,2026-02-02 18:56:17.609672,107.958171,0.543323,3.929585,slot#2,NaN,,,keyboard,probe_digit#2,"{""value"":""slot#2"",""entered"":null,""rt"":3.9295854000083636,""note"":""probe_digit#2""}",1,0.004179,239.293758,1
Sergio_G01_CNS-LLF5HT7Y0,S01,OFFmed_OFFstim,20260202_185419,2026-02-02 18:54:29.111440,1,1,probe,DIGIT2_OFF,147,2026-02-02 18:56:17.613421,108.501494,0.000000,,5,,,,keyboard,digit#2 off,"{""value"":5,""note"":""digit#2 off"",""pd_used"":0}",1,0.004179,239.293758,1
Sergio_G01_CNS-LLF5HT7Y0,S01,OFFmed_OFFstim,20260202_185419,2026-02-02 18:54:29.111440,1,1,probe,POSTDIG_FIX2_ON,152,2026-02-02 18:56:17.615012,108.501494,1.825919,,,,,,keyboard,after digit#2,"{""note"":""after digit#2""}",1,0.004179,239.293758,1
Sergio_G01_CNS-LLF5HT7Y0,S01,OFFmed_OFFstim,20260202_185419,2026-02-02 18:54:29.111440,1,1,probe,POSTDIG_FIX2_OFF,157,2026-02-02 18:56:19.440113,110.327413,0.010383,,,,,,keyboard,after digit#2,"{""note"":""after digit#2"",""pd_used"":0}",1,0.004179,239.293758,1
Sergio_G01_CNS-LLF5HT7Y0,S01,OFFmed_OFFstim,20260202_185419,2026-02-02 18:54:29.111440,1,1,probe,DIGIT_RECALL_LINE_3,163,2026-02-02 18:56:19.449975,110.337796,0.395764,,3,,,,keyboard,next recall question,"{""value"":3,""note"":""next recall question"",""pd_used"":1}",1,0.004179,239.293758,1
Sergio_G01_CNS-LLF5HT7Y0,S01,OFFmed_OFFstim,20260202_185419,2026-02-02 18:54:29.111440,1,1,probe,PROBE_DIGIT_OK_3,71,2026-02-02 18:56:20.367692,110.733560,0.526146,6.704974,slot#3,NaN,,,keyboard,probe_digit#3,"{""value"":""slot#3"",""entered"":null,""rt"":6.7049739999929443,""note"":""probe_digit#3""}",1,0.004179,239.293758,1
Sergio_G01_CNS-LLF5HT7Y0,S01,OFFmed_OFFstim,20260202_185419,2026-02-02 18:54:29.111440,1,1,probe,DIGIT3_OFF,148,2026-02-02 18:56:20.371728,111.259706,0.000000,,5,,,,keyboard,digit#3 off,"{""value"":5,""note"":""digit#3 off"",""pd_used"":0}",1,0.004179,239.293758,1
Sergio_G01_CNS-LLF5HT7Y0,S01,OFFmed_OFFstim,20260202_185419,2026-02-02 18:54:29.111440,1,1,probe,POSTDIG_FIX3_ON,153,2026-02-02 18:56:20.373221,111.259706,1.801074,,,,,,keyboard,after digit#3,"{""note"":""after digit#3""}",1,0.004179,239.293758,1
Sergio_G01_CNS-LLF5HT7Y0,S01,OFFmed_OFFstim,20260202_185419,2026-02-02 18:54:29.111440,1,1,probe,POSTDIG_FIX3_OFF,158,2026-02-02 18:56:22.173613,113.060780,0.010397,,,,,,keyboard,after digit#3,"{""note"":""after digit#3"",""pd_used"":0}",1,0.004179,239.293758,1
Sergio_G01_CNS-LLF5HT7Y0,S01,OFFmed_OFFstim,20260202_185419,2026-02-02 18:54:29.111440,1,1,probe,DIGIT_RECALL_LINE_4,164,2026-02-02 18:56:22.183314,113.071177,0.495772,,4,,,,keyboard,next recall question,"{""value"":4,""note"":""next recall question"",""pd_used"":1}",1,0.004179,239.293758,1
Sergio_G01_CNS-LLF5HT7Y0,S01,OFFmed_OFFstim,20260202_185419,2026-02-02 18:54:29.111440,1,1,probe,PROBE_DIGIT_OK_4,71,2026-02-02 18:56:23.160560,113.566950,0.485327,9.538364,slot#4,NaN,,,keyboard,probe_digit#4,"{""value"":""slot#4"",""entered"":null,""rt"":9.5383639000065159,""note"":""probe_digit#4""}",1,0.004179,239.293758,1
Sergio_G01_CNS-LLF5HT7Y0,S01,OFFmed_OFFstim,20260202_185419,2026-02-02 18:54:29.111440,1,1,probe,DIGIT4_OFF,149,2026-02-02 18:56:23.163935,114.052277,0.000000,,5,,,,keyboard,digit#4 off,"{""value"":5,""note"":""digit#4 off"",""pd_used"":0}",1,0.004179,239.293758,1
Sergio_G01_CNS-LLF5HT7Y0,S01,OFFmed_OFFstim,20260202_185419,2026-02-02 18:54:29.111440,1,1,probe,POSTDIG_FIX4_ON,154,2026-02-02 18:56:23.164518,114.052277,1.679274,,,,,,keyboard,after digit#4,"{""note"":""after digit#4""}",1,0.004179,239.293758,1
Sergio_G01_CNS-LLF5HT7Y0,S01,OFFmed_OFFstim,20260202_185419,2026-02-02 18:54:29.111440,1,1,probe,POSTDIG_FIX4_OFF,159,2026-02-02 18:56:24.844261,115.731551,0.012376,,,,,,keyboard,after digit#4,"{""note"":""after digit#4"",""pd_used"":0}",1,0.004179,239.293758,1
Sergio_G01_CNS-LLF5HT7Y0,S01,OFFmed_OFFstim,20260202_185419,2026-02-02 18:54:29.111440,1,1,probe,DIGIT_RECALL_LINE_5,165,2026-02-02 18:56:24.856611,115.743927,0.377266,,5,,,,keyboard,next recall question,"{""value"":5,""note"":""next recall question"",""pd_used"":1}",1,0.004179,239.293758,1
Sergio_G01_CNS-LLF5HT7Y0,S01,OFFmed_OFFstim,20260202_185419,2026-02-02 18:54:29.111440,1,1,probe,PROBE_DIGIT_OK_5,71,2026-02-02 18:56:25.746765,116.121193,0.517735,12.092608,slot#5,NaN,,,keyboard,probe_digit#5,"{""value"":""slot#5"",""entered"":null,""rt"":12.09260770000401,""note"":""probe_digit#5""}",1,0.004179,239.293758,1
Sergio_G01_CNS-LLF5HT7Y0,S01,OFFmed_OFFstim,20260202_185419,2026-02-02 18:54:29.111440,1,1,probe,DIGIT5_OFF,150,2026-02-02 18:56:25.750287,116.638928,0.000000,,5,,,,keyboard,digit#5 off,"{""value"":5,""note"":""digit#5 off"",""pd_used"":0}",1,0.004179,239.293758,1
Sergio_G01_CNS-LLF5HT7Y0,S01,OFFmed_OFFstim,20260202_185419,2026-02-02 18:54:29.111440,1,1,probe,POSTDIG_FIX5_ON,155,2026-02-02 18:56:25.750936,116.638928,3.367035,,,,,,keyboard,after digit#5,"{""note"":""after digit#5""}",1,0.004179,239.293758,1
Sergio_G01_CNS-LLF5HT7Y0,S01,OFFmed_OFFstim,20260202_185419,2026-02-02 18:54:29.111440,1,1,probe,POSTDIG_FIX5_OFF,160,2026-02-02 18:56:29.118752,120.005963,0.004668,,,,,,keyboard,after digit#5,"{""note"":""after digit#5"",""pd_used"":0}",1,0.004179,239.293758,1
Sergio_G01_CNS-LLF5HT7Y0,S01,OFFmed_OFFstim,20260202_185419,2026-02-02 18:54:29.111440,1,1,probe,PROBE_DONE,73,2026-02-02 18:56:29.122682,120.010632,0.002019,,,,,,keyboard,probe complete,"{""value"":"""",""note"":""probe complete""}",1,0.004179,239.293758,1
Sergio_G01_CNS-LLF5HT7Y0,S01,OFFmed_OFFstim,20260202_185419,2026-02-02 18:54:29.111440,1,1,probe,TRIAL_END,21,2026-02-02 18:56:29.124468,120.012651,0.002001,,,,,,keyboard,,{},1,0.004179,239.293758,1
Sergio_G01_CNS-LLF5HT7Y0,S01,OFFmed_OFFstim,20260202_185419,2026-02-02 18:54:29.111440,1,1,probe,BLOCK_END,11,2026-02-02 18:56:29.126378,120.014652,0.145493,,,,,,keyboard,,{},1,0.004179,239.293758,1
Sergio_G01_CNS-LLF5HT7Y0,S01,OFFmed_OFFstim,20260202_185419,2026-02-02 18:54:29.111440,1,1,probe,SESSION_END,3,2026-02-02 18:56:29.271716,120.160145,NaN,,,,,,keyboard,,{},1,0.004179,239.293758,1
