file_version,subject,condition,session,task_start_time,block,trial,phase,event_name,event_code,wall_clock,t_rel_sec,duration_to_next,rt,value_shown,entered_value,correct,key_name,device,note,json,screen_index,ifi,refresh_hz,pd_used
Alavie_G01_CNS-DDJXM3V64,test,OFFmed_OFFstim,20251208_192305,2025-12-08 19:23:21.449950,NaN,NaN,,START_PAGE_ON,4,2025-12-08 19:23:22.432285,0.981571,0.016410,,,,,,keyboard,,"{""pd_used"":0}",2,0.016667,60.000000,1
Alavie_G01_CNS-DDJXM3V64,test,OFFmed_OFFstim,20251208_192305,2025-12-08 19:23:21.449950,NaN,NaN,,START_PAGE_ON,4,2025-12-08 19:23:22.432285,0.981571,0.897775,,,,,,keyboard,,"{""pd_used"":0}",2,0.016667,60.000000,1
Alavie_G01_CNS-DDJXM3V64,test,OFFmed_OFFstim,20251208_192305,2025-12-08 19:23:21.449950,NaN,NaN,,START_PAGE_ON,4,2025-12-08 19:23:22.432285,0.981571,1.217282,,,,,,keyboard,,"{""pd_used"":0}",2,0.016667,60.000000,1
Alavie_G01_CNS-DDJXM3V64,test,OFFmed_OFFstim,20251208_192305,2025-12-08 19:23:21.449950,NaN,NaN,,SESSION_START,1,2025-12-08 19:23:23.648900,2.198853,0.001241,,,,,,keyboard,,{},2,0.016667,60.000000,1
Alavie_G01_CNS-DDJXM3V64,test,OFFmed_OFFstim,20251208_192305,2025-12-08 19:23:21.449950,1,NaN,,BLOCK_START,10,2025-12-08 19:23:23.649916,2.200094,0.016404,,,,,,keyboard,,{},2,0.016667,60.000000,1
Alavie_G01_CNS-DDJXM3V64,test,OFFmed_OFFstim,20251208_192305,2025-12-08 19:23:21.449950,1,0,warmup,WARMUP_DIGIT_1_ON,201,2025-12-08 19:23:23.666312,2.216498,0.531973,,9,,,,keyboard,warmup digit#1,"{""value"":9,""note"":""warmup digit#1"",""pd_used"":0}",2,0.016667,60.000000,1
Alavie_G01_CNS-DDJXM3V64,test,OFFmed_OFFstim,20251208_192305,2025-12-08 19:23:21.449950,1,0,warmup,WARMUP_DIGIT_1_OFF,211,2025-12-08 19:23:24.198473,2.748471,0.000000,,9,,,,keyboard,warmup digit#1 off,"{""value"":9,""note"":""warmup digit#1 off"",""pd_used"":0}",2,0.016667,60.000000,1
Alavie_G01_CNS-DDJXM3V64,test,OFFmed_OFFstim,20251208_192305,2025-12-08 19:23:21.449950,1,0,warmup,WARMUP_FIX_ON_1,221,2025-12-08 19:23:24.199479,2.748471,1.917049,,,,,,keyboard,after warmup digit,"{""note"":""after warmup digit""}",2,0.016667,60.000000,1
Alavie_G01_CNS-DDJXM3V64,test,OFFmed_OFFstim,20251208_192305,2025-12-08 19:23:21.449950,1,0,warmup,WARMUP_FIX_OFF_1,222,2025-12-08 19:23:26.115731,4.665520,0.016104,,,,,,keyboard,,"{""pd_used"":0}",2,0.016667,60.000000,1
Alavie_G01_CNS-DDJXM3V64,test,OFFmed_OFFstim,20251208_192305,2025-12-08 19:23:21.449950,1,0,warmup,WARMUP_DIGIT_2_ON,202,2025-12-08 19:23:26.131504,4.681624,0.534432,,3,,,,keyboard,warmup digit#2,"{""value"":3,""note"":""warmup digit#2"",""pd_used"":0}",2,0.016667,60.000000,1
Alavie_G01_CNS-DDJXM3V64,test,OFFmed_OFFstim,20251208_192305,2025-12-08 19:23:21.449950,1,0,warmup,WARMUP_DIGIT_2_OFF,212,2025-12-08 19:23:26.666068,5.216056,0.000000,,3,,,,keyboard,warmup digit#2 off,"{""value"":3,""note"":""warmup digit#2 off"",""pd_used"":0}",2,0.016667,60.000000,1
Alavie_G01_CNS-DDJXM3V64,test,OFFmed_OFFstim,20251208_192305,2025-12-08 19:23:21.449950,1,0,warmup,WARMUP_FIX_ON_2,221,2025-12-08 19:23:26.667015,5.216056,1.799453,,,,,,keyboard,after warmup digit,"{""note"":""after warmup digit""}",2,0.016667,60.000000,1
Alavie_G01_CNS-DDJXM3V64,test,OFFmed_OFFstim,20251208_192305,2025-12-08 19:23:21.449950,1,0,warmup,WARMUP_FIX_OFF_2,222,2025-12-08 19:23:28.465587,7.015508,0.016520,,,,,,keyboard,,"{""pd_used"":0}",2,0.016667,60.000000,1
Alavie_G01_CNS-DDJXM3V64,test,OFFmed_OFFstim,20251208_192305,2025-12-08 19:23:21.449950,1,0,warmup,WARMUP_DIGIT_3_ON,203,2025-12-08 19:23:28.481878,7.032028,0.533577,,9,,,,keyboard,warmup digit#3,"{""value"":9,""note"":""warmup digit#3"",""pd_used"":0}",2,0.016667,60.000000,1
Alavie_G01_CNS-DDJXM3V64,test,OFFmed_OFFstim,20251208_192305,2025-12-08 19:23:21.449950,1,0,warmup,WARMUP_DIGIT_3_OFF,213,2025-12-08 19:23:29.015711,7.565605,0.000000,,9,,,,keyboard,warmup digit#3 off,"{""value"":9,""note"":""warmup digit#3 off"",""pd_used"":0}",2,0.016667,60.000000,1
Alavie_G01_CNS-DDJXM3V64,test,OFFmed_OFFstim,20251208_192305,2025-12-08 19:23:21.449950,1,0,warmup,WARMUP_FIX_ON_3,221,2025-12-08 19:23:29.016725,7.565605,1.601022,,,,,,keyboard,after warmup digit,"{""note"":""after warmup digit""}",2,0.016667,60.000000,1
Alavie_G01_CNS-DDJXM3V64,test,OFFmed_OFFstim,20251208_192305,2025-12-08 19:23:21.449950,1,0,warmup,WARMUP_FIX_OFF_3,222,2025-12-08 19:23:30.617149,9.166628,0.015293,,,,,,keyboard,,"{""pd_used"":0}",2,0.016667,60.000000,1
Alavie_G01_CNS-DDJXM3V64,test,OFFmed_OFFstim,20251208_192305,2025-12-08 19:23:21.449950,1,0,warmup,WARMUP_DIGIT_4_ON,204,2025-12-08 19:23:30.631763,9.181921,0.534047,,8,,,,keyboard,warmup digit#4,"{""value"":8,""note"":""warmup digit#4"",""pd_used"":0}",2,0.016667,60.000000,1
Alavie_G01_CNS-DDJXM3V64,test,OFFmed_OFFstim,20251208_192305,2025-12-08 19:23:21.449950,1,0,warmup,WARMUP_DIGIT_4_OFF,214,2025-12-08 19:23:31.165959,9.715968,0.000000,,8,,,,keyboard,warmup digit#4 off,"{""value"":8,""note"":""warmup digit#4 off"",""pd_used"":0}",2,0.016667,60.000000,1
Alavie_G01_CNS-DDJXM3V64,test,OFFmed_OFFstim,20251208_192305,2025-12-08 19:23:21.449950,1,0,warmup,WARMUP_FIX_ON_4,221,2025-12-08 19:23:31.166877,9.715968,1.617971,,,,,,keyboard,after warmup digit,"{""note"":""after warmup digit""}",2,0.016667,60.000000,1
Alavie_G01_CNS-DDJXM3V64,test,OFFmed_OFFstim,20251208_192305,2025-12-08 19:23:21.449950,1,0,warmup,WARMUP_FIX_OFF_4,222,2025-12-08 19:23:32.784118,11.333938,0.015380,,,,,,keyboard,,"{""pd_used"":0}",2,0.016667,60.000000,1
Alavie_G01_CNS-DDJXM3V64,test,OFFmed_OFFstim,20251208_192305,2025-12-08 19:23:21.449950,1,0,warmup,WARMUP_DIGIT_5_ON,205,2025-12-08 19:23:32.799185,11.349318,0.533245,,5,,,,keyboard,warmup digit#5,"{""value"":5,""note"":""warmup digit#5"",""pd_used"":0}",2,0.016667,60.000000,1
Alavie_G01_CNS-DDJXM3V64,test,OFFmed_OFFstim,20251208_192305,2025-12-08 19:23:21.449950,1,0,warmup,WARMUP_DIGIT_5_OFF,215,2025-12-08 19:23:33.332532,11.882563,0.000000,,5,,,,keyboard,warmup digit#5 off,"{""value"":5,""note"":""warmup digit#5 off"",""pd_used"":0}",2,0.016667,60.000000,1
Alavie_G01_CNS-DDJXM3V64,test,OFFmed_OFFstim,20251208_192305,2025-12-08 19:23:21.449950,1,0,warmup,WARMUP_FIX_ON_5,221,2025-12-08 19:23:33.333728,11.882563,1.883708,,,,,,keyboard,after warmup digit,"{""note"":""after warmup digit""}",2,0.016667,60.000000,1
Alavie_G01_CNS-DDJXM3V64,test,OFFmed_OFFstim,20251208_192305,2025-12-08 19:23:21.449950,1,0,warmup,WARMUP_FIX_OFF_5,222,2025-12-08 19:23:35.216368,13.766271,0.016073,,,,,,keyboard,,"{""pd_used"":0}",2,0.016667,60.000000,1
Alavie_G01_CNS-DDJXM3V64,test,OFFmed_OFFstim,20251208_192305,2025-12-08 19:23:21.449950,1,0,warmup,WARMUP_DIGIT_6_ON,206,2025-12-08 19:23:35.232143,13.782344,0.534692,,8,,,,keyboard,warmup digit#6,"{""value"":8,""note"":""warmup digit#6"",""pd_used"":0}",2,0.016667,60.000000,1
Alavie_G01_CNS-DDJXM3V64,test,OFFmed_OFFstim,20251208_192305,2025-12-08 19:23:21.449950,1,0,warmup,WARMUP_DIGIT_6_OFF,216,2025-12-08 19:23:35.767025,14.317035,0.000000,,8,,,,keyboard,warmup digit#6 off,"{""value"":8,""note"":""warmup digit#6 off"",""pd_used"":0}",2,0.016667,60.000000,1
Alavie_G01_CNS-DDJXM3V64,test,OFFmed_OFFstim,20251208_192305,2025-12-08 19:23:21.449950,1,0,warmup,WARMUP_FIX_ON_6,221,2025-12-08 19:23:35.767917,14.317035,1.917781,,,,,,keyboard,after warmup digit,"{""note"":""after warmup digit""}",2,0.016667,60.000000,1
Alavie_G01_CNS-DDJXM3V64,test,OFFmed_OFFstim,20251208_192305,2025-12-08 19:23:21.449950,1,0,warmup,WARMUP_FIX_OFF_6,222,2025-12-08 19:23:37.685027,16.234816,0.014997,,,,,,keyboard,,"{""pd_used"":0}",2,0.016667,60.000000,1
Alavie_G01_CNS-DDJXM3V64,test,OFFmed_OFFstim,20251208_192305,2025-12-08 19:23:21.449950,1,0,warmup,WARMUP_DIGIT_7_ON,207,2025-12-08 19:23:37.700038,16.249813,0.549451,,0,,,,keyboard,warmup digit#7,"{""value"":0,""note"":""warmup digit#7"",""pd_used"":0}",2,0.016667,60.000000,1
Alavie_G01_CNS-DDJXM3V64,test,OFFmed_OFFstim,20251208_192305,2025-12-08 19:23:21.449950,1,0,warmup,WARMUP_DIGIT_7_OFF,217,2025-12-08 19:23:38.249259,16.799264,0.000000,,0,,,,keyboard,warmup digit#7 off,"{""value"":0,""note"":""warmup digit#7 off"",""pd_used"":0}",2,0.016667,60.000000,1
Alavie_G01_CNS-DDJXM3V64,test,OFFmed_OFFstim,20251208_192305,2025-12-08 19:23:21.449950,1,0,warmup,WARMUP_FIX_ON_7,221,2025-12-08 19:23:38.250072,16.799264,1.816501,,,,,,keyboard,after warmup digit,"{""note"":""after warmup digit""}",2,0.016667,60.000000,1
Alavie_G01_CNS-DDJXM3V64,test,OFFmed_OFFstim,20251208_192305,2025-12-08 19:23:21.449950,1,0,warmup,WARMUP_FIX_OFF_7,222,2025-12-08 19:23:40.065859,18.615765,0.017067,,,,,,keyboard,,"{""pd_used"":0}",2,0.016667,60.000000,1
Alavie_G01_CNS-DDJXM3V64,test,OFFmed_OFFstim,20251208_192305,2025-12-08 19:23:21.449950,1,0,warmup,WARMUP_DIGIT_8_ON,208,2025-12-08 19:23:40.082733,18.632832,0.533905,,6,,,,keyboard,warmup digit#8,"{""value"":6,""note"":""warmup digit#8"",""pd_used"":0}",2,0.016667,60.000000,1
Alavie_G01_CNS-DDJXM3V64,test,OFFmed_OFFstim,20251208_192305,2025-12-08 19:23:21.449950,1,0,warmup,WARMUP_DIGIT_8_OFF,218,2025-12-08 19:23:40.616702,19.166736,0.000000,,6,,,,keyboard,warmup digit#8 off,"{""value"":6,""note"":""warmup digit#8 off"",""pd_used"":0}",2,0.016667,60.000000,1
Alavie_G01_CNS-DDJXM3V64,test,OFFmed_OFFstim,20251208_192305,2025-12-08 19:23:21.449950,1,0,warmup,WARMUP_FIX_ON_8,221,2025-12-08 19:23:40.617526,19.166736,1.983854,,,,,,keyboard,after warmup digit,"{""note"":""after warmup digit""}",2,0.016667,60.000000,1
Alavie_G01_CNS-DDJXM3V64,test,OFFmed_OFFstim,20251208_192305,2025-12-08 19:23:21.449950,1,0,warmup,WARMUP_FIX_OFF_8,222,2025-12-08 19:23:42.600756,21.150590,0.015821,,,,,,keyboard,,"{""pd_used"":0}",2,0.016667,60.000000,1
Alavie_G01_CNS-DDJXM3V64,test,OFFmed_OFFstim,20251208_192305,2025-12-08 19:23:21.449950,1,0,warmup,WARMUP_DIGIT_9_ON,209,2025-12-08 19:23:42.616548,21.166411,0.533174,,2,,,,keyboard,warmup digit#9,"{""value"":2,""note"":""warmup digit#9"",""pd_used"":0}",2,0.016667,60.000000,1
Alavie_G01_CNS-DDJXM3V64,test,OFFmed_OFFstim,20251208_192305,2025-12-08 19:23:21.449950,1,0,warmup,WARMUP_DIGIT_9_OFF,219,2025-12-08 19:23:43.149582,21.699585,0.000000,,2,,,,keyboard,warmup digit#9 off,"{""value"":2,""note"":""warmup digit#9 off"",""pd_used"":0}",2,0.016667,60.000000,1
Alavie_G01_CNS-DDJXM3V64,test,OFFmed_OFFstim,20251208_192305,2025-12-08 19:23:21.449950,1,0,warmup,WARMUP_FIX_ON_9,221,2025-12-08 19:23:43.150377,21.699585,1.900707,,,,,,keyboard,after warmup digit,"{""note"":""after warmup digit""}",2,0.016667,60.000000,1
Alavie_G01_CNS-DDJXM3V64,test,OFFmed_OFFstim,20251208_192305,2025-12-08 19:23:21.449950,1,0,warmup,WARMUP_FIX_OFF_9,222,2025-12-08 19:23:45.050443,23.600293,0.021041,,,,,,keyboard,,"{""pd_used"":0}",2,0.016667,60.000000,1
Alavie_G01_CNS-DDJXM3V64,test,OFFmed_OFFstim,20251208_192305,2025-12-08 19:23:21.449950,1,0,warmup,WARMUP_DIGIT_10_ON,210,2025-12-08 19:23:45.071511,23.621334,0.545574,,4,,,,keyboard,warmup digit#10,"{""value"":4,""note"":""warmup digit#10"",""pd_used"":0}",2,0.016667,60.000000,1
Alavie_G01_CNS-DDJXM3V64,test,OFFmed_OFFstim,20251208_192305,2025-12-08 19:23:21.449950,1,0,warmup,WARMUP_DIGIT_10_OFF,220,2025-12-08 19:23:45.616915,24.166908,0.000000,,4,,,,keyboard,warmup digit#10 off,"{""value"":4,""note"":""warmup digit#10 off"",""pd_used"":0}",2,0.016667,60.000000,1
Alavie_G01_CNS-DDJXM3V64,test,OFFmed_OFFstim,20251208_192305,2025-12-08 19:23:21.449950,1,0,warmup,WARMUP_FIX_ON_10,221,2025-12-08 19:23:45.617771,24.166908,1.816152,,,,,,keyboard,after warmup digit,"{""note"":""after warmup digit""}",2,0.016667,60.000000,1
Alavie_G01_CNS-DDJXM3V64,test,OFFmed_OFFstim,20251208_192305,2025-12-08 19:23:21.449950,1,0,warmup,WARMUP_FIX_OFF_10,222,2025-12-08 19:23:47.433268,25.983061,0.001387,,,,,,keyboard,,"{""pd_used"":0}",2,0.016667,60.000000,1
Alavie_G01_CNS-DDJXM3V64,test,OFFmed_OFFstim,20251208_192305,2025-12-08 19:23:21.449950,1,1,warmup,TRIAL_CHANGE,22,2025-12-08 19:23:47.434356,25.984447,0.000862,,,,,,keyboard,trial transition,"{""note"":""trial transition""}",2,0.016667,60.000000,1
Alavie_G01_CNS-DDJXM3V64,test,OFFmed_OFFstim,20251208_192305,2025-12-08 19:23:21.449950,1,1,warmup,TRIAL_START,20,2025-12-08 19:23:47.435082,25.985310,0.014758,,,,,,keyboard,,{},2,0.016667,60.000000,1
Alavie_G01_CNS-DDJXM3V64,test,OFFmed_OFFstim,20251208_192305,2025-12-08 19:23:21.449950,1,1,fix1,FIX1_ON,30,2025-12-08 19:23:47.450224,26.000068,3.249948,,,,,,keyboard,,"{""pd_used"":0}",2,0.016667,60.000000,1
Alavie_G01_CNS-DDJXM3V64,test,OFFmed_OFFstim,20251208_192305,2025-12-08 19:23:21.449950,1,1,fix1,FIX1_OFF,31,2025-12-08 19:23:50.700135,29.250017,0.018841,,,,,,keyboard,,"{""pd_used"":0}",2,0.016667,60.000000,1
Alavie_G01_CNS-DDJXM3V64,test,OFFmed_OFFstim,20251208_192305,2025-12-08 19:23:21.449950,1,1,digit,DIGIT1_ON,141,2025-12-08 19:23:50.718768,29.268858,0.514568,,5,,,,keyboard,digit#1 shown,"{""value"":5,""note"":""digit#1 shown"",""pd_used"":1}",2,0.016667,60.000000,1
Alavie_G01_CNS-DDJXM3V64,test,OFFmed_OFFstim,20251208_192305,2025-12-08 19:23:21.449950,1,1,digit,DIGIT1_OFF,146,2025-12-08 19:23:51.233530,29.783426,0.000000,,5,,,,keyboard,digit#1 off,"{""value"":5,""note"":""digit#1 off"",""pd_used"":0}",2,0.016667,60.000000,1
Alavie_G01_CNS-DDJXM3V64,test,OFFmed_OFFstim,20251208_192305,2025-12-08 19:23:21.449950,1,1,digit,POSTDIG_FIX1_ON,151,2025-12-08 19:23:51.234543,29.783426,2.000629,,,,,,keyboard,after digit#1,"{""note"":""after digit#1""}",2,0.016667,60.000000,1
Alavie_G01_CNS-DDJXM3V64,test,OFFmed_OFFstim,20251208_192305,2025-12-08 19:23:21.449950,1,1,digit,POSTDIG_FIX1_OFF,156,2025-12-08 19:23:53.234187,31.784054,0.015857,,,,,,keyboard,after digit#1,"{""note"":""after digit#1"",""pd_used"":0}",2,0.016667,60.000000,1
Alavie_G01_CNS-DDJXM3V64,test,OFFmed_OFFstim,20251208_192305,2025-12-08 19:23:21.449950,1,1,digit,DIGIT2_ON,142,2025-12-08 19:23:53.249769,31.799912,0.517451,,8,,,,keyboard,digit#2 shown,"{""value"":8,""note"":""digit#2 shown"",""pd_used"":1}",2,0.016667,60.000000,1
Alavie_G01_CNS-DDJXM3V64,test,OFFmed_OFFstim,20251208_192305,2025-12-08 19:23:21.449950,1,1,digit,DIGIT2_OFF,147,2025-12-08 19:23:53.767459,32.317363,0.000000,,8,,,,keyboard,digit#2 off,"{""value"":8,""note"":""digit#2 off"",""pd_used"":0}",2,0.016667,60.000000,1
Alavie_G01_CNS-DDJXM3V64,test,OFFmed_OFFstim,20251208_192305,2025-12-08 19:23:21.449950,1,1,digit,POSTDIG_FIX2_ON,152,2025-12-08 19:23:53.768613,32.317363,1.666448,,,,,,keyboard,after digit#2,"{""note"":""after digit#2""}",2,0.016667,60.000000,1
Alavie_G01_CNS-DDJXM3V64,test,OFFmed_OFFstim,20251208_192305,2025-12-08 19:23:21.449950,1,1,digit,POSTDIG_FIX2_OFF,157,2025-12-08 19:23:55.433893,33.983811,0.017268,,,,,,keyboard,after digit#2,"{""note"":""after digit#2"",""pd_used"":0}",2,0.016667,60.000000,1
Alavie_G01_CNS-DDJXM3V64,test,OFFmed_OFFstim,20251208_192305,2025-12-08 19:23:21.449950,1,1,digit,DIGIT3_ON,143,2025-12-08 19:23:55.450940,34.001079,0.515892,,5,,,,keyboard,digit#3 shown,"{""value"":5,""note"":""digit#3 shown"",""pd_used"":1}",2,0.016667,60.000000,1
Alavie_G01_CNS-DDJXM3V64,test,OFFmed_OFFstim,20251208_192305,2025-12-08 19:23:21.449950,1,1,digit,DIGIT3_OFF,148,2025-12-08 19:23:55.967045,34.516971,0.000000,,5,,,,keyboard,digit#3 off,"{""value"":5,""note"":""digit#3 off"",""pd_used"":0}",2,0.016667,60.000000,1
Alavie_G01_CNS-DDJXM3V64,test,OFFmed_OFFstim,20251208_192305,2025-12-08 19:23:21.449950,1,1,digit,POSTDIG_FIX3_ON,153,2025-12-08 19:23:55.968042,34.516971,1.750638,,,,,,keyboard,after digit#3,"{""note"":""after digit#3""}",2,0.016667,60.000000,1
Alavie_G01_CNS-DDJXM3V64,test,OFFmed_OFFstim,20251208_192305,2025-12-08 19:23:21.449950,1,1,digit,POSTDIG_FIX3_OFF,158,2025-12-08 19:23:57.717760,36.267609,0.016147,,,,,,keyboard,after digit#3,"{""note"":""after digit#3"",""pd_used"":0}",2,0.016667,60.000000,1
Alavie_G01_CNS-DDJXM3V64,test,OFFmed_OFFstim,20251208_192305,2025-12-08 19:23:21.449950,1,1,digit,DIGIT4_ON,144,2025-12-08 19:23:57.733620,36.283757,0.517870,,0,,,,keyboard,digit#4 shown,"{""value"":0,""note"":""digit#4 shown"",""pd_used"":1}",2,0.016667,60.000000,1
Alavie_G01_CNS-DDJXM3V64,test,OFFmed_OFFstim,20251208_192305,2025-12-08 19:23:21.449950,1,1,digit,DIGIT4_OFF,149,2025-12-08 19:23:58.251914,36.801627,0.000000,,0,,,,keyboard,digit#4 off,"{""value"":0,""note"":""digit#4 off"",""pd_used"":0}",2,0.016667,60.000000,1
Alavie_G01_CNS-DDJXM3V64,test,OFFmed_OFFstim,20251208_192305,2025-12-08 19:23:21.449950,1,1,digit,POSTDIG_FIX4_ON,154,2025-12-08 19:23:58.253506,36.801627,1.732091,,,,,,keyboard,after digit#4,"{""note"":""after digit#4""}",2,0.016667,60.000000,1
Alavie_G01_CNS-DDJXM3V64,test,OFFmed_OFFstim,20251208_192305,2025-12-08 19:23:21.449950,1,1,digit,POSTDIG_FIX4_OFF,159,2025-12-08 19:23:59.983856,38.533718,0.018055,,,,,,keyboard,after digit#4,"{""note"":""after digit#4"",""pd_used"":0}",2,0.016667,60.000000,1
Alavie_G01_CNS-DDJXM3V64,test,OFFmed_OFFstim,20251208_192305,2025-12-08 19:23:21.449950,1,1,digit,DIGIT5_ON,145,2025-12-08 19:24:00.001876,38.551773,0.515692,,1,,,,keyboard,digit#5 shown,"{""value"":1,""note"":""digit#5 shown"",""pd_used"":1}",2,0.016667,60.000000,1
Alavie_G01_CNS-DDJXM3V64,test,OFFmed_OFFstim,20251208_192305,2025-12-08 19:23:21.449950,1,1,digit,DIGIT5_OFF,150,2025-12-08 19:24:00.517795,39.067465,0.000000,,1,,,,keyboard,digit#5 off,"{""value"":1,""note"":""digit#5 off"",""pd_used"":0}",2,0.016667,60.000000,1
Alavie_G01_CNS-DDJXM3V64,test,OFFmed_OFFstim,20251208_192305,2025-12-08 19:23:21.449950,1,1,digit,POSTDIG_FIX5_ON,155,2025-12-08 19:24:00.519393,39.067465,3.117597,,,,,,keyboard,after digit#5,"{""note"":""after digit#5""}",2,0.016667,60.000000,1
Alavie_G01_CNS-DDJXM3V64,test,OFFmed_OFFstim,20251208_192305,2025-12-08 19:23:21.449950,1,1,digit,POSTDIG_FIX5_OFF,160,2025-12-08 19:24:03.635140,42.185062,0.015848,,,,,,keyboard,after digit#5,"{""note"":""after digit#5"",""pd_used"":0}",2,0.016667,60.000000,1
Alavie_G01_CNS-DDJXM3V64,test,OFFmed_OFFstim,20251208_192305,2025-12-08 19:23:21.449950,1,1,distractor,DISTRACTOR_ON,50,2025-12-08 19:24:03.650733,42.200910,2.019135,,3+7=9,,,,keyboard,,"{""value"":""3+7=9"",""isCorrectTruth"":false,""trueSum"":10,""pd_used"":1}",2,0.016667,60.000000,1
Alavie_G01_CNS-DDJXM3V64,test,OFFmed_OFFstim,20251208_192305,2025-12-08 19:23:21.449950,1,1,distractor,DISTRACTOR_ANS,51,2025-12-08 19:24:06.141425,44.220045,0.000000,2.019135,3+7=9,F,1,,keyboard,key= (False),"{""value"":""3+7=9"",""entered"":""F"",""rt"":2.0191354998387396,""correct"":1,""note"":""key= (False)"",""truth"":false,""trueSum"":10,""shownSum"":9,""a"":3,""b"":7}",2,0.016667,60.000000,1
Alavie_G01_CNS-DDJXM3V64,test,OFFmed_OFFstim,20251208_192305,2025-12-08 19:23:21.449950,1,1,distractor,ANS_CORRECT,100,2025-12-08 19:24:06.142651,44.220045,0.480586,,,,,,keyboard,,{},2,0.016667,60.000000,1
Alavie_G01_CNS-DDJXM3V64,test,OFFmed_OFFstim,20251208_192305,2025-12-08 19:23:21.449950,1,1,distractor,DISTRACTOR_OFF,52,2025-12-08 19:24:06.150495,44.700631,0.000000,,,,,,keyboard,,"{""pd_used"":0}",2,0.016667,60.000000,1
Alavie_G01_CNS-DDJXM3V64,test,OFFmed_OFFstim,20251208_192305,2025-12-08 19:23:21.449950,1,1,distractor,FIX2_ON,60,2025-12-08 19:24:06.151193,44.700631,3.334080,,,,,,keyboard,immediate after response,"{""note"":""immediate after response""}",2,0.016667,60.000000,1
Alavie_G01_CNS-DDJXM3V64,test,OFFmed_OFFstim,20251208_192305,2025-12-08 19:23:21.449950,1,1,fix2,FIX2_OFF,61,2025-12-08 19:24:09.484988,48.034711,0.017095,,,,,,keyboard,,"{""pd_used"":0}",2,0.016667,60.000000,1
Alavie_G01_CNS-DDJXM3V64,test,OFFmed_OFFstim,20251208_192305,2025-12-08 19:23:21.449950,1,1,probe,DIGIT_RECALL_LINE_1,161,2025-12-08 19:24:09.501689,48.051806,0.860402,,1,,,,keyboard,first recall question,"{""value"":1,""note"":""first recall question"",""pd_used"":1}",2,0.016667,60.000000,1
Alavie_G01_CNS-DDJXM3V64,test,OFFmed_OFFstim,20251208_192305,2025-12-08 19:23:21.449950,1,1,probe,PROBE_DIGIT_OK_1,71,2025-12-08 19:24:10.895863,48.912208,0.555695,0.875970,slot#1,NaN,,,keyboard,probe_digit#1,"{""value"":""slot#1"",""entered"":null,""rt"":0.87596960016526282,""note"":""probe_digit#1""}",2,0.016667,60.000000,1
Alavie_G01_CNS-DDJXM3V64,test,OFFmed_OFFstim,20251208_192305,2025-12-08 19:23:21.449950,1,1,probe,DIGIT1_OFF,146,2025-12-08 19:24:10.917738,49.467903,0.000000,,1,,,,keyboard,digit#1 off,"{""value"":1,""note"":""digit#1 off"",""pd_used"":0}",2,0.016667,60.000000,1
Alavie_G01_CNS-DDJXM3V64,test,OFFmed_OFFstim,20251208_192305,2025-12-08 19:23:21.449950,1,1,probe,POSTDIG_FIX1_ON,151,2025-12-08 19:24:10.918996,49.467903,1.784012,,,,,,keyboard,after digit#1,"{""note"":""after digit#1""}",2,0.016667,60.000000,1
Alavie_G01_CNS-DDJXM3V64,test,OFFmed_OFFstim,20251208_192305,2025-12-08 19:23:21.449950,1,1,probe,POSTDIG_FIX1_OFF,156,2025-12-08 19:24:12.702021,51.251915,0.032786,,,,,,keyboard,after digit#1,"{""note"":""after digit#1"",""pd_used"":0}",2,0.016667,60.000000,1
Alavie_G01_CNS-DDJXM3V64,test,OFFmed_OFFstim,20251208_192305,2025-12-08 19:23:21.449950,1,1,probe,DIGIT_RECALL_LINE_2,162,2025-12-08 19:24:12.734636,51.284701,0.533373,,2,,,,keyboard,next recall question,"{""value"":2,""note"":""next recall question"",""pd_used"":1}",2,0.016667,60.000000,1
Alavie_G01_CNS-DDJXM3V64,test,OFFmed_OFFstim,20251208_192305,2025-12-08 19:23:21.449950,1,1,probe,PROBE_DIGIT_OK_2,71,2025-12-08 19:24:13.764803,51.818075,0.517023,3.781837,slot#2,NaN,,,keyboard,probe_digit#2,"{""value"":""slot#2"",""entered"":null,""rt"":3.7818366000428796,""note"":""probe_digit#2""}",2,0.016667,60.000000,1
Alavie_G01_CNS-DDJXM3V64,test,OFFmed_OFFstim,20251208_192305,2025-12-08 19:23:21.449950,1,1,probe,DIGIT2_OFF,147,2025-12-08 19:24:13.784995,52.335098,0.000000,,1,,,,keyboard,digit#2 off,"{""value"":1,""note"":""digit#2 off"",""pd_used"":0}",2,0.016667,60.000000,1
Alavie_G01_CNS-DDJXM3V64,test,OFFmed_OFFstim,20251208_192305,2025-12-08 19:23:21.449950,1,1,probe,POSTDIG_FIX2_ON,152,2025-12-08 19:24:13.785809,52.335098,1.983341,,,,,,keyboard,after digit#2,"{""note"":""after digit#2""}",2,0.016667,60.000000,1
Alavie_G01_CNS-DDJXM3V64,test,OFFmed_OFFstim,20251208_192305,2025-12-08 19:23:21.449950,1,1,probe,POSTDIG_FIX2_OFF,157,2025-12-08 19:24:15.768579,54.318439,0.033277,,,,,,keyboard,after digit#2,"{""note"":""after digit#2"",""pd_used"":0}",2,0.016667,60.000000,1
Alavie_G01_CNS-DDJXM3V64,test,OFFmed_OFFstim,20251208_192305,2025-12-08 19:23:21.449950,1,1,probe,DIGIT_RECALL_LINE_3,163,2025-12-08 19:24:15.801612,54.351716,0.364501,,3,,,,keyboard,next recall question,"{""value"":3,""note"":""next recall question"",""pd_used"":1}",2,0.016667,60.000000,1
Alavie_G01_CNS-DDJXM3V64,test,OFFmed_OFFstim,20251208_192305,2025-12-08 19:23:21.449950,1,1,probe,PROBE_DIGIT_OK_3,71,2025-12-08 19:24:16.783622,54.716217,0.635669,6.679979,slot#3,NaN,,,keyboard,probe_digit#3,"{""value"":""slot#3"",""entered"":null,""rt"":6.6799787001218647,""note"":""probe_digit#3""}",2,0.016667,60.000000,1
Alavie_G01_CNS-DDJXM3V64,test,OFFmed_OFFstim,20251208_192305,2025-12-08 19:23:21.449950,1,1,probe,DIGIT3_OFF,148,2025-12-08 19:24:16.801743,55.351885,0.000000,,1,,,,keyboard,digit#3 off,"{""value"":1,""note"":""digit#3 off"",""pd_used"":0}",2,0.016667,60.000000,1
Alavie_G01_CNS-DDJXM3V64,test,OFFmed_OFFstim,20251208_192305,2025-12-08 19:23:21.449950,1,1,probe,POSTDIG_FIX3_ON,153,2025-12-08 19:24:16.802587,55.351885,1.884341,,,,,,keyboard,after digit#3,"{""note"":""after digit#3""}",2,0.016667,60.000000,1
Alavie_G01_CNS-DDJXM3V64,test,OFFmed_OFFstim,20251208_192305,2025-12-08 19:23:21.449950,1,1,probe,POSTDIG_FIX3_OFF,158,2025-12-08 19:24:18.686329,57.236227,0.032925,,,,,,keyboard,after digit#3,"{""note"":""after digit#3"",""pd_used"":0}",2,0.016667,60.000000,1
Alavie_G01_CNS-DDJXM3V64,test,OFFmed_OFFstim,20251208_192305,2025-12-08 19:23:21.449950,1,1,probe,DIGIT_RECALL_LINE_4,164,2025-12-08 19:24:18.719020,57.269151,0.504133,,4,,,,keyboard,next recall question,"{""value"":4,""note"":""next recall question"",""pd_used"":1}",2,0.016667,60.000000,1
Alavie_G01_CNS-DDJXM3V64,test,OFFmed_OFFstim,20251208_192305,2025-12-08 19:23:21.449950,1,1,probe,PROBE_DIGIT_OK_4,71,2025-12-08 19:24:19.842396,57.773284,0.628787,9.737046,slot#4,NaN,,,keyboard,probe_digit#4,"{""value"":""slot#4"",""entered"":null,""rt"":9.7370463002007455,""note"":""probe_digit#4""}",2,0.016667,60.000000,1
Alavie_G01_CNS-DDJXM3V64,test,OFFmed_OFFstim,20251208_192305,2025-12-08 19:23:21.449950,1,1,probe,DIGIT4_OFF,149,2025-12-08 19:24:19.851921,58.402071,0.000000,,1,,,,keyboard,digit#4 off,"{""value"":1,""note"":""digit#4 off"",""pd_used"":0}",2,0.016667,60.000000,1
Alavie_G01_CNS-DDJXM3V64,test,OFFmed_OFFstim,20251208_192305,2025-12-08 19:23:21.449950,1,1,probe,POSTDIG_FIX4_ON,154,2025-12-08 19:24:19.852758,58.402071,2.000453,,,,,,keyboard,after digit#4,"{""note"":""after digit#4""}",2,0.016667,60.000000,1
Alavie_G01_CNS-DDJXM3V64,test,OFFmed_OFFstim,20251208_192305,2025-12-08 19:23:21.449950,1,1,probe,POSTDIG_FIX4_OFF,159,2025-12-08 19:24:21.852712,60.402524,0.033931,,,,,,keyboard,after digit#4,"{""note"":""after digit#4"",""pd_used"":0}",2,0.016667,60.000000,1
Alavie_G01_CNS-DDJXM3V64,test,OFFmed_OFFstim,20251208_192305,2025-12-08 19:23:21.449950,1,1,probe,DIGIT_RECALL_LINE_5,165,2025-12-08 19:24:21.886645,60.436455,0.415091,,5,,,,keyboard,next recall question,"{""value"":5,""note"":""next recall question"",""pd_used"":1}",2,0.016667,60.000000,1
Alavie_G01_CNS-DDJXM3V64,test,OFFmed_OFFstim,20251208_192305,2025-12-08 19:23:21.449950,1,1,probe,PROBE_DIGIT_OK_5,71,2025-12-08 19:24:22.943072,60.851546,0.667281,12.815307,slot#5,NaN,,,keyboard,probe_digit#5,"{""value"":""slot#5"",""entered"":null,""rt"":12.81530740018934,""note"":""probe_digit#5""}",2,0.016667,60.000000,1
Alavie_G01_CNS-DDJXM3V64,test,OFFmed_OFFstim,20251208_192305,2025-12-08 19:23:21.449950,1,1,probe,DIGIT5_OFF,150,2025-12-08 19:24:22.969174,61.518827,0.000000,,1,,,,keyboard,digit#5 off,"{""value"":1,""note"":""digit#5 off"",""pd_used"":0}",2,0.016667,60.000000,1
Alavie_G01_CNS-DDJXM3V64,test,OFFmed_OFFstim,20251208_192305,2025-12-08 19:23:21.449950,1,1,probe,POSTDIG_FIX5_ON,155,2025-12-08 19:24:22.970466,61.518827,3.169807,,,,,,keyboard,after digit#5,"{""note"":""after digit#5""}",2,0.016667,60.000000,1
Alavie_G01_CNS-DDJXM3V64,test,OFFmed_OFFstim,20251208_192305,2025-12-08 19:23:21.449950,1,1,probe,POSTDIG_FIX5_OFF,160,2025-12-08 19:24:26.138997,64.688634,0.014069,,,,,,keyboard,after digit#5,"{""note"":""after digit#5"",""pd_used"":0}",2,0.016667,60.000000,1
Alavie_G01_CNS-DDJXM3V64,test,OFFmed_OFFstim,20251208_192305,2025-12-08 19:23:21.449950,1,1,probe,PROBE_DONE,73,2025-12-08 19:24:26.152716,64.702704,0.000979,,,,,,keyboard,probe complete,"{""value"":"""",""note"":""probe complete""}",2,0.016667,60.000000,1
Alavie_G01_CNS-DDJXM3V64,test,OFFmed_OFFstim,20251208_192305,2025-12-08 19:23:21.449950,1,1,probe,TRIAL_END,21,2025-12-08 19:24:26.153469,64.703683,0.000739,,,,,,keyboard,,{},2,0.016667,60.000000,1
Alavie_G01_CNS-DDJXM3V64,test,OFFmed_OFFstim,20251208_192305,2025-12-08 19:23:21.449950,1,1,probe,BLOCK_END,11,2025-12-08 19:24:26.154188,64.704422,0.302986,,,,,,keyboard,,{},2,0.016667,60.000000,1
Alavie_G01_CNS-DDJXM3V64,test,OFFmed_OFFstim,20251208_192305,2025-12-08 19:23:21.449950,1,1,probe,SESSION_END,3,2025-12-08 19:24:26.457709,65.007408,NaN,,,,,,keyboard,,{},2,0.016667,60.000000,1
