file_version,subject,condition,session,task_start_time,block,trial,phase,event_name,event_code,wall_clock,t_rel_sec,duration_to_next,rt,value_shown,entered_value,correct,key_name,device,note,json,screen_index,ifi,refresh_hz,pd_used
Alavie_G01_CNS-DDJXM3V64,test,OFFmed_OFFstim,20251209_181124,2025-12-09 18:11:34.076012,1,NaN,,BLOCK_START,10,2025-12-09 18:11:35.550258,1.471157,0.049703,,,,,,keyboard,,{},2,0.016667,60.000000,1
Alavie_G01_CNS-DDJXM3V64,test,OFFmed_OFFstim,20251209_181124,2025-12-09 18:11:34.076012,1,0,warmup,START_PAGE_ON,4,2025-12-09 18:11:35.597527,1.520859,0.017742,,,,,,keyboard,,"{""pd_used"":0}",2,0.016667,60.000000,1
Alavie_G01_CNS-DDJXM3V64,test,OFFmed_OFFstim,20251209_181124,2025-12-09 18:11:34.076012,1,0,warmup,START_PAGE_ON,4,2025-12-09 18:11:35.597527,1.520859,1.733421,,,,,,keyboard,,"{""pd_used"":0}",2,0.016667,60.000000,1
Alavie_G01_CNS-DDJXM3V64,test,OFFmed_OFFstim,20251209_181124,2025-12-09 18:11:34.076012,1,0,warmup,START_PAGE_ON,4,2025-12-09 18:11:35.597527,1.520859,2.052159,,,,,,keyboard,,"{""pd_used"":0}",2,0.016667,60.000000,1
Alavie_G01_CNS-DDJXM3V64,test,OFFmed_OFFstim,20251209_181124,2025-12-09 18:11:34.076012,1,0,warmup,SESSION_START,1,2025-12-09 18:11:37.650505,3.573019,0.003999,,,,,,keyboard,,{},2,0.016667,60.000000,1
Alavie_G01_CNS-DDJXM3V64,test,OFFmed_OFFstim,20251209_181124,2025-12-09 18:11:34.076012,1,0,warmup,CONTROL_START,23,2025-12-09 18:11:37.654387,3.577018,3.388350,,,,,,keyboard,,{},2,0.016667,60.000000,1
Alavie_G01_CNS-DDJXM3V64,test,OFFmed_OFFstim,20251209_181124,2025-12-09 18:11:34.076012,1,0,warmup,DIGIT1_ON,201,2025-12-09 18:11:41.042008,6.965368,1.464968,,0,,,,keyboard,digit#1 shown,"{""value"":0,""note"":""digit#1 shown"",""pd_used"":1}",2,0.016667,60.000000,1
Alavie_G01_CNS-DDJXM3V64,test,OFFmed_OFFstim,20251209_181124,2025-12-09 18:11:34.076012,1,0,warmup,PROBE_COUNT_OK_1,71,2025-12-09 18:11:43.010869,8.430336,0.515326,6.952738,slot#1,NaN,,,keyboard,probe_digit#1,"{""value"":""slot#1"",""entered"":null,""rt"":6.9527378003112972,""note"":""probe_digit#1""}",2,0.016667,60.000000,1
Alavie_G01_CNS-DDJXM3V64,test,OFFmed_OFFstim,20251209_181124,2025-12-09 18:11:34.076012,1,0,warmup,DIGIT1_OFF,211,2025-12-09 18:11:43.021612,8.945662,0.000000,,0,,,,keyboard,digit#1 off,"{""value"":0,""note"":""digit#1 off"",""pd_used"":0}",2,0.016667,60.000000,1
Alavie_G01_CNS-DDJXM3V64,test,OFFmed_OFFstim,20251209_181124,2025-12-09 18:11:34.076012,1,0,warmup,POSTCOUNT_FIX1_ON,231,2025-12-09 18:11:43.023031,8.945662,1.647840,,,,,,keyboard,after digit#1,"{""note"":""after digit#1""}",2,0.016667,60.000000,1
Alavie_G01_CNS-DDJXM3V64,test,OFFmed_OFFstim,20251209_181124,2025-12-09 18:11:34.076012,1,0,warmup,POSTCOUNT_FIX1_ON,231,2025-12-09 18:11:44.669773,10.593502,-1.647840,,,,,,keyboard,after digit#1,"{""note"":""after digit#1"",""pd_used"":0}",2,0.016667,60.000000,1
Alavie_G01_CNS-DDJXM3V64,test,OFFmed_OFFstim,20251209_181124,2025-12-09 18:11:34.076012,1,0,warmup,POSTCOUNT_FIX1_ON,231,2025-12-09 18:11:44.685138,8.945662,3.561598,,,,,,keyboard,after digit#1,"{""note"":""after digit#1""}",2,0.016667,60.000000,1
Alavie_G01_CNS-DDJXM3V64,test,OFFmed_OFFstim,20251209_181124,2025-12-09 18:11:34.076012,1,0,warmup,POSTDIG_FIX1_OFF,241,2025-12-09 18:11:46.583715,12.507260,0.034998,,,,,,keyboard,after digit#1,"{""note"":""after digit#1"",""pd_used"":0}",2,0.016667,60.000000,1
Alavie_G01_CNS-DDJXM3V64,test,OFFmed_OFFstim,20251209_181124,2025-12-09 18:11:34.076012,1,0,warmup,DIGIT1_ON,202,2025-12-09 18:11:46.618244,12.542258,0.921974,,7,,,,keyboard,digit#2 shown,"{""value"":7,""note"":""digit#2 shown"",""pd_used"":1}",2,0.016667,60.000000,1
Alavie_G01_CNS-DDJXM3V64,test,OFFmed_OFFstim,20251209_181124,2025-12-09 18:11:34.076012,1,0,warmup,PROBE_COUNT_OK_2,71,2025-12-09 18:11:48.025634,13.464232,0.494742,11.986633,slot#2,NaN,,,keyboard,probe_digit#2,"{""value"":""slot#2"",""entered"":null,""rt"":11.986633399967104,""note"":""probe_digit#2""}",2,0.016667,60.000000,1
Alavie_G01_CNS-DDJXM3V64,test,OFFmed_OFFstim,20251209_181124,2025-12-09 18:11:34.076012,1,0,warmup,DIGIT2_OFF,212,2025-12-09 18:11:48.034947,13.958973,0.000000,,7,,,,keyboard,digit#2 off,"{""value"":7,""note"":""digit#2 off"",""pd_used"":0}",2,0.016667,60.000000,1
Alavie_G01_CNS-DDJXM3V64,test,OFFmed_OFFstim,20251209_181124,2025-12-09 18:11:34.076012,1,0,warmup,POSTCOUNT_FIX2_ON,232,2025-12-09 18:11:48.035740,13.958973,1.999049,,,,,,keyboard,after digit#2,"{""note"":""after digit#2""}",2,0.016667,60.000000,1
Alavie_G01_CNS-DDJXM3V64,test,OFFmed_OFFstim,20251209_181124,2025-12-09 18:11:34.076012,1,0,warmup,POSTCOUNT_FIX2_ON,232,2025-12-09 18:11:50.034254,15.958023,-1.999049,,,,,,keyboard,after digit#2,"{""note"":""after digit#2"",""pd_used"":0}",2,0.016667,60.000000,1
Alavie_G01_CNS-DDJXM3V64,test,OFFmed_OFFstim,20251209_181124,2025-12-09 18:11:34.076012,1,0,warmup,POSTCOUNT_FIX2_ON,232,2025-12-09 18:11:50.045082,13.958973,3.527280,,,,,,keyboard,after digit#2,"{""note"":""after digit#2""}",2,0.016667,60.000000,1
Alavie_G01_CNS-DDJXM3V64,test,OFFmed_OFFstim,20251209_181124,2025-12-09 18:11:34.076012,1,0,warmup,POSTDIG_FIX2_OFF,242,2025-12-09 18:11:51.563082,17.486254,0.021680,,,,,,keyboard,after digit#2,"{""note"":""after digit#2"",""pd_used"":0}",2,0.016667,60.000000,1
Alavie_G01_CNS-DDJXM3V64,test,OFFmed_OFFstim,20251209_181124,2025-12-09 18:11:34.076012,1,0,warmup,DIGIT1_ON,203,2025-12-09 18:11:51.583877,17.507934,1.167669,,0,,,,keyboard,digit#3 shown,"{""value"":0,""note"":""digit#3 shown"",""pd_used"":1}",2,0.016667,60.000000,1
Alavie_G01_CNS-DDJXM3V64,test,OFFmed_OFFstim,20251209_181124,2025-12-09 18:11:34.076012,1,0,warmup,PROBE_COUNT_OK_3,71,2025-12-09 18:11:53.163081,18.675602,0.420571,17.198004,slot#3,NaN,,,keyboard,probe_digit#3,"{""value"":""slot#3"",""entered"":null,""rt"":17.19800420012325,""note"":""probe_digit#3""}",2,0.016667,60.000000,1
Alavie_G01_CNS-DDJXM3V64,test,OFFmed_OFFstim,20251209_181124,2025-12-09 18:11:34.076012,1,0,warmup,DIGIT3_OFF,213,2025-12-09 18:11:53.172163,19.096173,0.000000,,0,,,,keyboard,digit#3 off,"{""value"":0,""note"":""digit#3 off"",""pd_used"":0}",2,0.016667,60.000000,1
Alavie_G01_CNS-DDJXM3V64,test,OFFmed_OFFstim,20251209_181124,2025-12-09 18:11:34.076012,1,0,warmup,POSTCOUNT_FIX3_ON,233,2025-12-09 18:11:53.173677,19.096173,1.976335,,,,,,keyboard,after digit#3,"{""note"":""after digit#3""}",2,0.016667,60.000000,1
Alavie_G01_CNS-DDJXM3V64,test,OFFmed_OFFstim,20251209_181124,2025-12-09 18:11:34.076012,1,0,warmup,POSTCOUNT_FIX3_ON,233,2025-12-09 18:11:55.149623,21.072508,-1.976335,,,,,,keyboard,after digit#3,"{""note"":""after digit#3"",""pd_used"":0}",2,0.016667,60.000000,1
Alavie_G01_CNS-DDJXM3V64,test,OFFmed_OFFstim,20251209_181124,2025-12-09 18:11:34.076012,1,0,warmup,POSTCOUNT_FIX3_ON,233,2025-12-09 18:11:55.158250,19.096173,3.753239,,,,,,keyboard,after digit#3,"{""note"":""after digit#3""}",2,0.016667,60.000000,1
Alavie_G01_CNS-DDJXM3V64,test,OFFmed_OFFstim,20251209_181124,2025-12-09 18:11:34.076012,1,0,warmup,POSTDIG_FIX3_OFF,243,2025-12-09 18:11:56.926366,22.849412,0.029182,,,,,,keyboard,after digit#3,"{""note"":""after digit#3"",""pd_used"":0}",2,0.016667,60.000000,1
Alavie_G01_CNS-DDJXM3V64,test,OFFmed_OFFstim,20251209_181124,2025-12-09 18:11:34.076012,1,0,warmup,DIGIT1_ON,204,2025-12-09 18:11:56.954608,22.878595,0.647044,,3,,,,keyboard,digit#4 shown,"{""value"":3,""note"":""digit#4 shown"",""pd_used"":1}",2,0.016667,60.000000,1
Alavie_G01_CNS-DDJXM3V64,test,OFFmed_OFFstim,20251209_181124,2025-12-09 18:11:34.076012,1,0,warmup,PROBE_COUNT_OK_4,71,2025-12-09 18:11:58.003480,23.525638,0.409295,22.048040,slot#4,NaN,,,keyboard,probe_digit#4,"{""value"":""slot#4"",""entered"":null,""rt"":22.048040100373328,""note"":""probe_digit#4""}",2,0.016667,60.000000,1
Alavie_G01_CNS-DDJXM3V64,test,OFFmed_OFFstim,20251209_181124,2025-12-09 18:11:34.076012,1,0,warmup,DIGIT4_OFF,214,2025-12-09 18:11:58.010887,23.934933,0.000000,,3,,,,keyboard,digit#4 off,"{""value"":3,""note"":""digit#4 off"",""pd_used"":0}",2,0.016667,60.000000,1
Alavie_G01_CNS-DDJXM3V64,test,OFFmed_OFFstim,20251209_181124,2025-12-09 18:11:34.076012,1,0,warmup,POSTCOUNT_FIX4_ON,234,2025-12-09 18:11:58.011685,23.934933,1.932814,,,,,,keyboard,after digit#4,"{""note"":""after digit#4""}",2,0.016667,60.000000,1
Alavie_G01_CNS-DDJXM3V64,test,OFFmed_OFFstim,20251209_181124,2025-12-09 18:11:34.076012,1,0,warmup,POSTCOUNT_FIX4_ON,234,2025-12-09 18:11:59.943987,25.867747,-1.932814,,,,,,keyboard,after digit#4,"{""note"":""after digit#4"",""pd_used"":0}",2,0.016667,60.000000,1
Alavie_G01_CNS-DDJXM3V64,test,OFFmed_OFFstim,20251209_181124,2025-12-09 18:11:34.076012,1,0,warmup,POSTCOUNT_FIX4_ON,234,2025-12-09 18:11:59.969166,23.934933,3.949487,,,,,,keyboard,after digit#4,"{""note"":""after digit#4""}",2,0.016667,60.000000,1
Alavie_G01_CNS-DDJXM3V64,test,OFFmed_OFFstim,20251209_181124,2025-12-09 18:11:34.076012,1,0,warmup,POSTDIG_FIX4_OFF,244,2025-12-09 18:12:01.961500,27.884420,0.025746,,,,,,keyboard,after digit#4,"{""note"":""after digit#4"",""pd_used"":0}",2,0.016667,60.000000,1
Alavie_G01_CNS-DDJXM3V64,test,OFFmed_OFFstim,20251209_181124,2025-12-09 18:11:34.076012,1,0,warmup,DIGIT1_ON,205,2025-12-09 18:12:01.986178,27.910166,0.891104,,6,,,,keyboard,digit#5 shown,"{""value"":6,""note"":""digit#5 shown"",""pd_used"":1}",2,0.016667,60.000000,1
Alavie_G01_CNS-DDJXM3V64,test,OFFmed_OFFstim,20251209_181124,2025-12-09 18:11:34.076012,1,0,warmup,PROBE_COUNT_OK_5,71,2025-12-09 18:12:03.245325,28.801270,0.377114,27.323671,slot#5,NaN,,,keyboard,probe_digit#5,"{""value"":""slot#5"",""entered"":null,""rt"":27.32367129996419,""note"":""probe_digit#5""}",2,0.016667,60.000000,1
Alavie_G01_CNS-DDJXM3V64,test,OFFmed_OFFstim,20251209_181124,2025-12-09 18:11:34.076012,1,0,warmup,DIGIT5_OFF,215,2025-12-09 18:12:03.254324,29.178383,0.000000,,6,,,,keyboard,digit#5 off,"{""value"":6,""note"":""digit#5 off"",""pd_used"":0}",2,0.016667,60.000000,1
Alavie_G01_CNS-DDJXM3V64,test,OFFmed_OFFstim,20251209_181124,2025-12-09 18:11:34.076012,1,0,warmup,POSTCOUNT_FIX5_ON,235,2025-12-09 18:12:03.255458,29.178383,3.489805,,,,,,keyboard,after digit#5,"{""note"":""after digit#5""}",2,0.016667,60.000000,1
Alavie_G01_CNS-DDJXM3V64,test,OFFmed_OFFstim,20251209_181124,2025-12-09 18:11:34.076012,1,0,warmup,POSTCOUNT_FIX5_ON,235,2025-12-09 18:12:06.744515,32.668189,-3.489805,,,,,,keyboard,after digit#5,"{""note"":""after digit#5"",""pd_used"":0}",2,0.016667,60.000000,1
Alavie_G01_CNS-DDJXM3V64,test,OFFmed_OFFstim,20251209_181124,2025-12-09 18:11:34.076012,1,0,warmup,POSTCOUNT_FIX5_ON,235,2025-12-09 18:12:06.755935,29.178383,6.721378,,,,,,keyboard,after digit#5,"{""note"":""after digit#5""}",2,0.016667,60.000000,1
Alavie_G01_CNS-DDJXM3V64,test,OFFmed_OFFstim,20251209_181124,2025-12-09 18:11:34.076012,1,0,warmup,POSTDIG_FIX5_OFF,245,2025-12-09 18:12:09.975995,35.899762,0.027727,,,,,,keyboard,after digit#5,"{""note"":""after digit#5"",""pd_used"":0}",2,0.016667,60.000000,1
Alavie_G01_CNS-DDJXM3V64,test,OFFmed_OFFstim,20251209_181124,2025-12-09 18:11:34.076012,1,0,warmup,DIGIT1_ON,206,2025-12-09 18:12:10.003402,35.927488,0.776611,,1,,,,keyboard,digit#6 shown,"{""value"":1,""note"":""digit#6 shown"",""pd_used"":1}",2,0.016667,60.000000,1
Alavie_G01_CNS-DDJXM3V64,test,OFFmed_OFFstim,20251209_181124,2025-12-09 18:11:34.076012,1,0,warmup,PROBE_COUNT_OK_6,71,2025-12-09 18:12:11.205060,36.704099,0.434582,35.226501,slot#6,NaN,,,keyboard,probe_digit#6,"{""value"":""slot#6"",""entered"":null,""rt"":35.226501000113785,""note"":""probe_digit#6""}",2,0.016667,60.000000,1
Alavie_G01_CNS-DDJXM3V64,test,OFFmed_OFFstim,20251209_181124,2025-12-09 18:11:34.076012,1,0,warmup,DIGIT6_OFF,216,2025-12-09 18:12:11.214707,37.138681,0.000000,,1,,,,keyboard,digit#6 off,"{""value"":1,""note"":""digit#6 off"",""pd_used"":0}",2,0.016667,60.000000,1
Alavie_G01_CNS-DDJXM3V64,test,OFFmed_OFFstim,20251209_181124,2025-12-09 18:11:34.076012,1,0,warmup,POSTCOUNT_FIX6_ON,236,2025-12-09 18:12:11.215787,37.138681,3.262252,,,,,,keyboard,after digit#6,"{""note"":""after digit#6""}",2,0.016667,60.000000,1
Alavie_G01_CNS-DDJXM3V64,test,OFFmed_OFFstim,20251209_181124,2025-12-09 18:11:34.076012,1,0,warmup,POSTCOUNT_FIX6_ON,236,2025-12-09 18:12:14.477226,40.400933,-3.262252,,,,,,keyboard,after digit#6,"{""note"":""after digit#6"",""pd_used"":0}",2,0.016667,60.000000,1
Alavie_G01_CNS-DDJXM3V64,test,OFFmed_OFFstim,20251209_181124,2025-12-09 18:11:34.076012,1,0,warmup,POSTCOUNT_FIX6_ON,236,2025-12-09 18:12:14.487674,37.138681,6.685709,,,,,,keyboard,after digit#6,"{""note"":""after digit#6""}",2,0.016667,60.000000,1
Alavie_G01_CNS-DDJXM3V64,test,OFFmed_OFFstim,20251209_181124,2025-12-09 18:11:34.076012,1,0,warmup,POSTDIG_FIX6_OFF,246,2025-12-09 18:12:17.901424,43.824390,0.024539,,,,,,keyboard,after digit#6,"{""note"":""after digit#6"",""pd_used"":0}",2,0.016667,60.000000,1
Alavie_G01_CNS-DDJXM3V64,test,OFFmed_OFFstim,20251209_181124,2025-12-09 18:11:34.076012,1,0,warmup,DIGIT1_ON,207,2025-12-09 18:12:17.924993,43.848929,0.783699,,7,,,,keyboard,digit#7 shown,"{""value"":7,""note"":""digit#7 shown"",""pd_used"":1}",2,0.016667,60.000000,1
Alavie_G01_CNS-DDJXM3V64,test,OFFmed_OFFstim,20251209_181124,2025-12-09 18:11:34.076012,1,0,warmup,PROBE_COUNT_OK_7,71,2025-12-09 18:12:19.114138,44.632628,0.415374,43.155030,slot#7,NaN,,,keyboard,probe_digit#7,"{""value"":""slot#7"",""entered"":null,""rt"":43.155029500368983,""note"":""probe_digit#7""}",2,0.016667,60.000000,1
Alavie_G01_CNS-DDJXM3V64,test,OFFmed_OFFstim,20251209_181124,2025-12-09 18:11:34.076012,1,0,warmup,DIGIT7_OFF,217,2025-12-09 18:12:19.123987,45.048002,0.000000,,7,,,,keyboard,digit#7 off,"{""value"":7,""note"":""digit#7 off"",""pd_used"":0}",2,0.016667,60.000000,1
Alavie_G01_CNS-DDJXM3V64,test,OFFmed_OFFstim,20251209_181124,2025-12-09 18:11:34.076012,1,0,warmup,POSTCOUNT_FIX7_ON,237,2025-12-09 18:12:19.124675,45.048002,3.198413,,,,,,keyboard,after digit#7,"{""note"":""after digit#7""}",2,0.016667,60.000000,1
Alavie_G01_CNS-DDJXM3V64,test,OFFmed_OFFstim,20251209_181124,2025-12-09 18:11:34.076012,1,0,warmup,POSTCOUNT_FIX7_ON,237,2025-12-09 18:12:22.322846,48.246415,-3.198413,,,,,,keyboard,after digit#7,"{""note"":""after digit#7"",""pd_used"":0}",2,0.016667,60.000000,1
Alavie_G01_CNS-DDJXM3V64,test,OFFmed_OFFstim,20251209_181124,2025-12-09 18:11:34.076012,1,0,warmup,POSTCOUNT_FIX7_ON,237,2025-12-09 18:12:22.337990,45.048002,6.617741,,,,,,keyboard,after digit#7,"{""note"":""after digit#7""}",2,0.016667,60.000000,1
Alavie_G01_CNS-DDJXM3V64,test,OFFmed_OFFstim,20251209_181124,2025-12-09 18:11:34.076012,1,0,warmup,POSTDIG_FIX7_OFF,247,2025-12-09 18:12:25.742185,51.665743,0.028762,,,,,,keyboard,after digit#7,"{""note"":""after digit#7"",""pd_used"":0}",2,0.016667,60.000000,1
Alavie_G01_CNS-DDJXM3V64,test,OFFmed_OFFstim,20251209_181124,2025-12-09 18:11:34.076012,1,0,warmup,DIGIT1_ON,208,2025-12-09 18:12:25.770476,51.694505,0.644557,,6,,,,keyboard,digit#8 shown,"{""value"":6,""note"":""digit#8 shown"",""pd_used"":1}",2,0.016667,60.000000,1
Alavie_G01_CNS-DDJXM3V64,test,OFFmed_OFFstim,20251209_181124,2025-12-09 18:11:34.076012,1,0,warmup,PROBE_COUNT_OK_8,71,2025-12-09 18:12:26.815028,52.339062,0.408141,50.861464,slot#8,NaN,,,keyboard,probe_digit#8,"{""value"":""slot#8"",""entered"":null,""rt"":50.8614635001868,""note"":""probe_digit#8""}",2,0.016667,60.000000,1
Alavie_G01_CNS-DDJXM3V64,test,OFFmed_OFFstim,20251209_181124,2025-12-09 18:11:34.076012,1,0,warmup,DIGIT8_OFF,218,2025-12-09 18:12:26.823170,52.747203,0.000000,,6,,,,keyboard,digit#8 off,"{""value"":6,""note"":""digit#8 off"",""pd_used"":0}",2,0.016667,60.000000,1
Alavie_G01_CNS-DDJXM3V64,test,OFFmed_OFFstim,20251209_181124,2025-12-09 18:11:34.076012,1,0,warmup,POSTCOUNT_FIX8_ON,238,2025-12-09 18:12:26.823876,52.747203,3.412328,,,,,,keyboard,after digit#8,"{""note"":""after digit#8""}",2,0.016667,60.000000,1
Alavie_G01_CNS-DDJXM3V64,test,OFFmed_OFFstim,20251209_181124,2025-12-09 18:11:34.076012,1,0,warmup,POSTCOUNT_FIX8_ON,238,2025-12-09 18:12:30.235732,56.159531,-3.412328,,,,,,keyboard,after digit#8,"{""note"":""after digit#8"",""pd_used"":0}",2,0.016667,60.000000,1
Alavie_G01_CNS-DDJXM3V64,test,OFFmed_OFFstim,20251209_181124,2025-12-09 18:11:34.076012,1,0,warmup,POSTCOUNT_FIX8_ON,238,2025-12-09 18:12:30.244288,52.747203,6.742549,,,,,,keyboard,after digit#8,"{""note"":""after digit#8""}",2,0.016667,60.000000,1
Alavie_G01_CNS-DDJXM3V64,test,OFFmed_OFFstim,20251209_181124,2025-12-09 18:11:34.076012,1,0,warmup,POSTDIG_FIX8_OFF,248,2025-12-09 18:12:33.566013,59.489752,0.020440,,,,,,keyboard,after digit#8,"{""note"":""after digit#8"",""pd_used"":0}",2,0.016667,60.000000,1
Alavie_G01_CNS-DDJXM3V64,test,OFFmed_OFFstim,20251209_181124,2025-12-09 18:11:34.076012,1,0,warmup,DIGIT1_ON,209,2025-12-09 18:12:33.586228,59.510191,0.640729,,9,,,,keyboard,digit#9 shown,"{""value"":9,""note"":""digit#9 shown"",""pd_used"":1}",2,0.016667,60.000000,1
Alavie_G01_CNS-DDJXM3V64,test,OFFmed_OFFstim,20251209_181124,2025-12-09 18:11:34.076012,1,0,warmup,PROBE_COUNT_OK_9,71,2025-12-09 18:12:34.703359,60.150921,0.482935,58.673322,slot#9,NaN,,,keyboard,probe_digit#9,"{""value"":""slot#9"",""entered"":null,""rt"":58.673322200309485,""note"":""probe_digit#9""}",2,0.016667,60.000000,1
Alavie_G01_CNS-DDJXM3V64,test,OFFmed_OFFstim,20251209_181124,2025-12-09 18:11:34.076012,1,0,warmup,DIGIT9_OFF,219,2025-12-09 18:12:34.709810,60.633856,0.000000,,9,,,,keyboard,digit#9 off,"{""value"":9,""note"":""digit#9 off"",""pd_used"":0}",2,0.016667,60.000000,1
Alavie_G01_CNS-DDJXM3V64,test,OFFmed_OFFstim,20251209_181124,2025-12-09 18:11:34.076012,1,0,warmup,POSTCOUNT_FIX9_ON,239,2025-12-09 18:12:34.710457,60.633856,3.046650,,,,,,keyboard,after digit#9,"{""note"":""after digit#9""}",2,0.016667,60.000000,1
Alavie_G01_CNS-DDJXM3V64,test,OFFmed_OFFstim,20251209_181124,2025-12-09 18:11:34.076012,1,0,warmup,POSTCOUNT_FIX9_ON,239,2025-12-09 18:12:37.756866,63.680506,-3.046650,,,,,,keyboard,after digit#9,"{""note"":""after digit#9"",""pd_used"":0}",2,0.016667,60.000000,1
Alavie_G01_CNS-DDJXM3V64,test,OFFmed_OFFstim,20251209_181124,2025-12-09 18:11:34.076012,1,0,warmup,POSTCOUNT_FIX9_ON,239,2025-12-09 18:12:37.764888,60.633856,6.363908,,,,,,keyboard,after digit#9,"{""note"":""after digit#9""}",2,0.016667,60.000000,1
Alavie_G01_CNS-DDJXM3V64,test,OFFmed_OFFstim,20251209_181124,2025-12-09 18:11:34.076012,1,0,warmup,POSTDIG_FIX9_OFF,249,2025-12-09 18:12:41.074259,66.997764,0.030928,,,,,,keyboard,after digit#9,"{""note"":""after digit#9"",""pd_used"":0}",2,0.016667,60.000000,1
Alavie_G01_CNS-DDJXM3V64,test,OFFmed_OFFstim,20251209_181124,2025-12-09 18:11:34.076012,1,0,warmup,DIGIT1_ON,210,2025-12-09 18:12:41.104693,67.028692,1.570763,,2,,,,keyboard,digit#10 shown,"{""value"":2,""note"":""digit#10 shown"",""pd_used"":1}",2,0.016667,60.000000,1
Alavie_G01_CNS-DDJXM3V64,test,OFFmed_OFFstim,20251209_181124,2025-12-09 18:11:34.076012,1,0,warmup,PROBE_COUNT_OK_10,71,2025-12-09 18:12:43.073696,68.599455,0.405814,67.121856,slot#10,NaN,,,keyboard,probe_digit#10,"{""value"":""slot#10"",""entered"":null,""rt"":67.121856400277466,""note"":""probe_digit#10""}",2,0.016667,60.000000,1
Alavie_G01_CNS-DDJXM3V64,test,OFFmed_OFFstim,20251209_181124,2025-12-09 18:11:34.076012,1,0,warmup,DIGIT10_OFF,220,2025-12-09 18:12:43.081243,69.005269,0.000000,,2,,,,keyboard,digit#10 off,"{""value"":2,""note"":""digit#10 off"",""pd_used"":0}",2,0.016667,60.000000,1
Alavie_G01_CNS-DDJXM3V64,test,OFFmed_OFFstim,20251209_181124,2025-12-09 18:11:34.076012,1,0,warmup,POSTCOUNT_FIX10_ON,240,2025-12-09 18:12:43.081936,69.005269,3.279779,,,,,,keyboard,after digit#10,"{""note"":""after digit#10""}",2,0.016667,60.000000,1
Alavie_G01_CNS-DDJXM3V64,test,OFFmed_OFFstim,20251209_181124,2025-12-09 18:11:34.076012,1,0,warmup,POSTCOUNT_FIX10_ON,240,2025-12-09 18:12:46.361295,72.285048,-3.279779,,,,,,keyboard,after digit#10,"{""note"":""after digit#10"",""pd_used"":0}",2,0.016667,60.000000,1
Alavie_G01_CNS-DDJXM3V64,test,OFFmed_OFFstim,20251209_181124,2025-12-09 18:11:34.076012,1,0,warmup,POSTCOUNT_FIX10_ON,240,2025-12-09 18:12:46.370273,69.005269,6.790098,,,,,,keyboard,after digit#10,"{""note"":""after digit#10""}",2,0.016667,60.000000,1
Alavie_G01_CNS-DDJXM3V64,test,OFFmed_OFFstim,20251209_181124,2025-12-09 18:11:34.076012,1,0,warmup,POSTDIG_FIX10_OFF,250,2025-12-09 18:12:49.871618,75.795367,0.008589,,,,,,keyboard,after digit#10,"{""note"":""after digit#10"",""pd_used"":0}",2,0.016667,60.000000,1
Alavie_G01_CNS-DDJXM3V64,test,OFFmed_OFFstim,20251209_181124,2025-12-09 18:11:34.076012,1,0,warmup,CONTROL_END,24,2025-12-09 18:12:49.879990,75.803956,0.014424,,,,,,keyboard,,{},2,0.016667,60.000000,1
Alavie_G01_CNS-DDJXM3V64,test,OFFmed_OFFstim,20251209_181124,2025-12-09 18:11:34.076012,1,0,warmup,START_PAGE_ON,4,2025-12-09 18:12:49.894353,75.818380,0.013348,,,,,,keyboard,,"{""pd_used"":0}",2,0.016667,60.000000,1
Alavie_G01_CNS-DDJXM3V64,test,OFFmed_OFFstim,20251209_181124,2025-12-09 18:11:34.076012,1,0,warmup,START_PAGE_ON,4,2025-12-09 18:12:49.894353,75.818380,3.019668,,,,,,keyboard,,"{""pd_used"":0}",2,0.016667,60.000000,1
Alavie_G01_CNS-DDJXM3V64,test,OFFmed_OFFstim,20251209_181124,2025-12-09 18:11:34.076012,1,0,warmup,START_PAGE_ON,4,2025-12-09 18:12:49.894353,75.818380,3.329798,,,,,,keyboard,,"{""pd_used"":0}",2,0.016667,60.000000,1
Alavie_G01_CNS-DDJXM3V64,test,OFFmed_OFFstim,20251209_181124,2025-12-09 18:11:34.076012,1,0,warmup,SESSION_START,1,2025-12-09 18:12:53.224412,79.148178,0.002303,,,,,,keyboard,,{},2,0.016667,60.000000,1
Alavie_G01_CNS-DDJXM3V64,test,OFFmed_OFFstim,20251209_181124,2025-12-09 18:11:34.076012,1,1,warmup,TRIAL_CHANGE,22,2025-12-09 18:12:53.226379,79.150481,0.000671,,,,,,keyboard,trial transition,"{""note"":""trial transition""}",2,0.016667,60.000000,1
Alavie_G01_CNS-DDJXM3V64,test,OFFmed_OFFstim,20251209_181124,2025-12-09 18:11:34.076012,1,1,warmup,TRIAL_START,20,2025-12-09 18:12:53.227037,79.151152,0.008188,,,,,,keyboard,,{},2,0.016667,60.000000,1
Alavie_G01_CNS-DDJXM3V64,test,OFFmed_OFFstim,20251209_181124,2025-12-09 18:11:34.076012,1,1,fix1,FIX1_ON,30,2025-12-09 18:12:53.235478,79.159340,3.119663,,,,,,keyboard,,"{""pd_used"":0}",2,0.016667,60.000000,1
Alavie_G01_CNS-DDJXM3V64,test,OFFmed_OFFstim,20251209_181124,2025-12-09 18:11:34.076012,1,1,fix1,FIX1_OFF,31,2025-12-09 18:12:56.355553,82.279003,0.010076,,,,,,keyboard,,"{""pd_used"":0}",2,0.016667,60.000000,1
Alavie_G01_CNS-DDJXM3V64,test,OFFmed_OFFstim,20251209_181124,2025-12-09 18:11:34.076012,1,1,digit,DIGIT1_ON,141,2025-12-09 18:12:56.365023,82.289079,0.512277,,6,,,,keyboard,digit#1 shown,"{""value"":6,""note"":""digit#1 shown"",""pd_used"":1}",2,0.016667,60.000000,1
Alavie_G01_CNS-DDJXM3V64,test,OFFmed_OFFstim,20251209_181124,2025-12-09 18:11:34.076012,1,1,digit,DIGIT1_OFF,146,2025-12-09 18:12:56.877553,82.801357,0.000000,,6,,,,keyboard,digit#1 off,"{""value"":6,""note"":""digit#1 off"",""pd_used"":0}",2,0.016667,60.000000,1
Alavie_G01_CNS-DDJXM3V64,test,OFFmed_OFFstim,20251209_181124,2025-12-09 18:11:34.076012,1,1,digit,POSTDIG_FIX1_ON,151,2025-12-09 18:12:56.878686,82.801357,1.637241,,,,,,keyboard,after digit#1,"{""note"":""after digit#1""}",2,0.016667,60.000000,1
Alavie_G01_CNS-DDJXM3V64,test,OFFmed_OFFstim,20251209_181124,2025-12-09 18:11:34.076012,1,1,digit,POSTDIG_FIX1_OFF,156,2025-12-09 18:12:58.514829,84.438597,0.012984,,,,,,keyboard,after digit#1,"{""note"":""after digit#1"",""pd_used"":0}",2,0.016667,60.000000,1
Alavie_G01_CNS-DDJXM3V64,test,OFFmed_OFFstim,20251209_181124,2025-12-09 18:11:34.076012,1,1,digit,DIGIT2_ON,142,2025-12-09 18:12:58.527539,84.451582,0.515100,,2,,,,keyboard,digit#2 shown,"{""value"":2,""note"":""digit#2 shown"",""pd_used"":1}",2,0.016667,60.000000,1
Alavie_G01_CNS-DDJXM3V64,test,OFFmed_OFFstim,20251209_181124,2025-12-09 18:11:34.076012,1,1,digit,DIGIT2_OFF,147,2025-12-09 18:12:59.042909,84.966682,0.000000,,2,,,,keyboard,digit#2 off,"{""value"":2,""note"":""digit#2 off"",""pd_used"":0}",2,0.016667,60.000000,1
Alavie_G01_CNS-DDJXM3V64,test,OFFmed_OFFstim,20251209_181124,2025-12-09 18:11:34.076012,1,1,digit,POSTDIG_FIX2_ON,152,2025-12-09 18:12:59.043976,84.966682,1.949024,,,,,,keyboard,after digit#2,"{""note"":""after digit#2""}",2,0.016667,60.000000,1
Alavie_G01_CNS-DDJXM3V64,test,OFFmed_OFFstim,20251209_181124,2025-12-09 18:11:34.076012,1,1,digit,POSTDIG_FIX2_OFF,157,2025-12-09 18:13:00.991943,86.915706,0.015541,,,,,,keyboard,after digit#2,"{""note"":""after digit#2"",""pd_used"":0}",2,0.016667,60.000000,1
Alavie_G01_CNS-DDJXM3V64,test,OFFmed_OFFstim,20251209_181124,2025-12-09 18:11:34.076012,1,1,digit,DIGIT3_ON,143,2025-12-09 18:13:01.007318,86.931247,0.508067,,7,,,,keyboard,digit#3 shown,"{""value"":7,""note"":""digit#3 shown"",""pd_used"":1}",2,0.016667,60.000000,1
Alavie_G01_CNS-DDJXM3V64,test,OFFmed_OFFstim,20251209_181124,2025-12-09 18:11:34.076012,1,1,digit,DIGIT3_OFF,148,2025-12-09 18:13:01.515512,87.439314,0.000000,,7,,,,keyboard,digit#3 off,"{""value"":7,""note"":""digit#3 off"",""pd_used"":0}",2,0.016667,60.000000,1
Alavie_G01_CNS-DDJXM3V64,test,OFFmed_OFFstim,20251209_181124,2025-12-09 18:11:34.076012,1,1,digit,POSTDIG_FIX3_ON,153,2025-12-09 18:13:01.516465,87.439314,1.514900,,,,,,keyboard,after digit#3,"{""note"":""after digit#3""}",2,0.016667,60.000000,1
Alavie_G01_CNS-DDJXM3V64,test,OFFmed_OFFstim,20251209_181124,2025-12-09 18:11:34.076012,1,1,digit,POSTDIG_FIX3_OFF,158,2025-12-09 18:13:03.031152,88.954213,0.013580,,,,,,keyboard,after digit#3,"{""note"":""after digit#3"",""pd_used"":0}",2,0.016667,60.000000,1
Alavie_G01_CNS-DDJXM3V64,test,OFFmed_OFFstim,20251209_181124,2025-12-09 18:11:34.076012,1,1,digit,DIGIT4_ON,144,2025-12-09 18:13:03.043814,88.967794,0.513719,,9,,,,keyboard,digit#4 shown,"{""value"":9,""note"":""digit#4 shown"",""pd_used"":1}",2,0.016667,60.000000,1
Alavie_G01_CNS-DDJXM3V64,test,OFFmed_OFFstim,20251209_181124,2025-12-09 18:11:34.076012,1,1,digit,DIGIT4_OFF,149,2025-12-09 18:13:03.557815,89.481512,0.000000,,9,,,,keyboard,digit#4 off,"{""value"":9,""note"":""digit#4 off"",""pd_used"":0}",2,0.016667,60.000000,1
Alavie_G01_CNS-DDJXM3V64,test,OFFmed_OFFstim,20251209_181124,2025-12-09 18:11:34.076012,1,1,digit,POSTDIG_FIX4_ON,154,2025-12-09 18:13:03.559500,89.481512,1.774487,,,,,,keyboard,after digit#4,"{""note"":""after digit#4""}",2,0.016667,60.000000,1
Alavie_G01_CNS-DDJXM3V64,test,OFFmed_OFFstim,20251209_181124,2025-12-09 18:11:34.076012,1,1,digit,POSTDIG_FIX4_OFF,159,2025-12-09 18:13:05.332545,91.255999,0.013340,,,,,,keyboard,after digit#4,"{""note"":""after digit#4"",""pd_used"":0}",2,0.016667,60.000000,1
Alavie_G01_CNS-DDJXM3V64,test,OFFmed_OFFstim,20251209_181124,2025-12-09 18:11:34.076012,1,1,digit,DIGIT5_ON,145,2025-12-09 18:13:05.345375,91.269339,0.512520,,5,,,,keyboard,digit#5 shown,"{""value"":5,""note"":""digit#5 shown"",""pd_used"":1}",2,0.016667,60.000000,1
Alavie_G01_CNS-DDJXM3V64,test,OFFmed_OFFstim,20251209_181124,2025-12-09 18:11:34.076012,1,1,digit,DIGIT5_OFF,150,2025-12-09 18:13:05.858189,91.781859,0.000000,,5,,,,keyboard,digit#5 off,"{""value"":5,""note"":""digit#5 off"",""pd_used"":0}",2,0.016667,60.000000,1
Alavie_G01_CNS-DDJXM3V64,test,OFFmed_OFFstim,20251209_181124,2025-12-09 18:11:34.076012,1,1,digit,POSTDIG_FIX5_ON,155,2025-12-09 18:13:05.859545,91.781859,3.489947,,,,,,keyboard,after digit#5,"{""note"":""after digit#5""}",2,0.016667,60.000000,1
Alavie_G01_CNS-DDJXM3V64,test,OFFmed_OFFstim,20251209_181124,2025-12-09 18:11:34.076012,1,1,digit,POSTDIG_FIX5_OFF,160,2025-12-09 18:13:09.348236,95.271806,0.013290,,,,,,keyboard,after digit#5,"{""note"":""after digit#5"",""pd_used"":0}",2,0.016667,60.000000,1
Alavie_G01_CNS-DDJXM3V64,test,OFFmed_OFFstim,20251209_181124,2025-12-09 18:11:34.076012,1,1,distractor,DISTRACTOR_ON,50,2025-12-09 18:13:09.361170,95.285096,0.008090,,1+1=2,,,,keyboard,,"{""value"":""1+1=2"",""isCorrectTruth"":true,""trueSum"":2,""pd_used"":1}",2,0.016667,60.000000,1
Alavie_G01_CNS-DDJXM3V64,test,OFFmed_OFFstim,20251209_181124,2025-12-09 18:11:34.076012,1,1,distractor,DISTRACTOR_ANS,51,2025-12-09 18:13:09.745168,95.293185,0.000000,0.008090,1+1=2,F,0,,keyboard,key= (False),"{""value"":""1+1=2"",""entered"":""F"",""rt"":0.00808950001373887,""correct"":0,""note"":""key= (False)"",""truth"":true,""trueSum"":2,""shownSum"":2,""a"":1,""b"":1}",2,0.016667,60.000000,1
Alavie_G01_CNS-DDJXM3V64,test,OFFmed_OFFstim,20251209_181124,2025-12-09 18:11:34.076012,1,1,distractor,ANS_WRONG,101,2025-12-09 18:13:09.749152,95.293185,0.389150,,,,,,keyboard,,{},2,0.016667,60.000000,1
Alavie_G01_CNS-DDJXM3V64,test,OFFmed_OFFstim,20251209_181124,2025-12-09 18:11:34.076012,1,1,distractor,DISTRACTOR_OFF,52,2025-12-09 18:13:09.758273,95.682335,0.000000,,,,,,keyboard,,"{""pd_used"":0}",2,0.016667,60.000000,1
Alavie_G01_CNS-DDJXM3V64,test,OFFmed_OFFstim,20251209_181124,2025-12-09 18:11:34.076012,1,1,distractor,FIX2_ON,60,2025-12-09 18:13:09.758951,95.682335,3.395798,,,,,,keyboard,immediate after response,"{""note"":""immediate after response""}",2,0.016667,60.000000,1
Alavie_G01_CNS-DDJXM3V64,test,OFFmed_OFFstim,20251209_181124,2025-12-09 18:11:34.076012,1,1,fix2,FIX2_OFF,61,2025-12-09 18:13:13.154388,99.078133,0.011278,,,,,,keyboard,,"{""pd_used"":0}",2,0.016667,60.000000,1
Alavie_G01_CNS-DDJXM3V64,test,OFFmed_OFFstim,20251209_181124,2025-12-09 18:11:34.076012,1,1,probe,DIGIT_RECALL_LINE_1,161,2025-12-09 18:13:13.165917,99.089411,2.314879,,1,,,,keyboard,first recall question,"{""value"":1,""note"":""first recall question"",""pd_used"":1}",2,0.016667,60.000000,1
Alavie_G01_CNS-DDJXM3V64,test,OFFmed_OFFstim,20251209_181124,2025-12-09 18:11:34.076012,1,1,probe,PROBE_DIGIT_OK_1,71,2025-12-09 18:13:15.975248,101.404290,0.502934,2.324865,slot#1,NaN,,,keyboard,probe_digit#1,"{""value"":""slot#1"",""entered"":null,""rt"":2.3248648997396231,""note"":""probe_digit#1""}",2,0.016667,60.000000,1
Alavie_G01_CNS-DDJXM3V64,test,OFFmed_OFFstim,20251209_181124,2025-12-09 18:11:34.076012,1,1,probe,DIGIT1_OFF,146,2025-12-09 18:13:15.983255,101.907224,0.000000,,5,,,,keyboard,digit#1 off,"{""value"":5,""note"":""digit#1 off"",""pd_used"":0}",2,0.016667,60.000000,1
Alavie_G01_CNS-DDJXM3V64,test,OFFmed_OFFstim,20251209_181124,2025-12-09 18:11:34.076012,1,1,probe,POSTDIG_FIX1_ON,151,2025-12-09 18:13:15.984089,101.907224,1.782349,,,,,,keyboard,after digit#1,"{""note"":""after digit#1""}",2,0.016667,60.000000,1
Alavie_G01_CNS-DDJXM3V64,test,OFFmed_OFFstim,20251209_181124,2025-12-09 18:11:34.076012,1,1,probe,POSTDIG_FIX1_OFF,156,2025-12-09 18:13:17.765825,103.689574,0.026875,,,,,,keyboard,after digit#1,"{""note"":""after digit#1"",""pd_used"":0}",2,0.016667,60.000000,1
Alavie_G01_CNS-DDJXM3V64,test,OFFmed_OFFstim,20251209_181124,2025-12-09 18:11:34.076012,1,1,probe,DIGIT_RECALL_LINE_2,162,2025-12-09 18:13:17.792462,103.716448,0.491113,,2,,,,keyboard,next recall question,"{""value"":2,""note"":""next recall question"",""pd_used"":1}",2,0.016667,60.000000,1
Alavie_G01_CNS-DDJXM3V64,test,OFFmed_OFFstim,20251209_181124,2025-12-09 18:11:34.076012,1,1,probe,PROBE_DIGIT_OK_2,71,2025-12-09 18:13:18.731885,104.207562,0.459075,5.128136,slot#2,NaN,,,keyboard,probe_digit#2,"{""value"":""slot#2"",""entered"":null,""rt"":5.1281362995505333,""note"":""probe_digit#2""}",2,0.016667,60.000000,1
Alavie_G01_CNS-DDJXM3V64,test,OFFmed_OFFstim,20251209_181124,2025-12-09 18:11:34.076012,1,1,probe,DIGIT2_OFF,147,2025-12-09 18:13:18.742803,104.666637,0.000000,,5,,,,keyboard,digit#2 off,"{""value"":5,""note"":""digit#2 off"",""pd_used"":0}",2,0.016667,60.000000,1
Alavie_G01_CNS-DDJXM3V64,test,OFFmed_OFFstim,20251209_181124,2025-12-09 18:11:34.076012,1,1,probe,POSTDIG_FIX2_ON,152,2025-12-09 18:13:18.743743,104.666637,1.789117,,,,,,keyboard,after digit#2,"{""note"":""after digit#2""}",2,0.016667,60.000000,1
Alavie_G01_CNS-DDJXM3V64,test,OFFmed_OFFstim,20251209_181124,2025-12-09 18:11:34.076012,1,1,probe,POSTDIG_FIX2_OFF,157,2025-12-09 18:13:20.532079,106.455754,0.025646,,,,,,keyboard,after digit#2,"{""note"":""after digit#2"",""pd_used"":0}",2,0.016667,60.000000,1
Alavie_G01_CNS-DDJXM3V64,test,OFFmed_OFFstim,20251209_181124,2025-12-09 18:11:34.076012,1,1,probe,DIGIT_RECALL_LINE_3,163,2025-12-09 18:13:20.557454,106.481400,0.154381,,3,,,,keyboard,next recall question,"{""value"":3,""note"":""next recall question"",""pd_used"":1}",2,0.016667,60.000000,1
Alavie_G01_CNS-DDJXM3V64,test,OFFmed_OFFstim,20251209_181124,2025-12-09 18:11:34.076012,1,1,probe,PROBE_DIGIT_OK_3,71,2025-12-09 18:13:21.043831,106.635780,0.339378,7.556355,slot#3,NaN,,,keyboard,probe_digit#3,"{""value"":""slot#3"",""entered"":null,""rt"":7.5563550996594131,""note"":""probe_digit#3""}",2,0.016667,60.000000,1
Alavie_G01_CNS-DDJXM3V64,test,OFFmed_OFFstim,20251209_181124,2025-12-09 18:11:34.076012,1,1,probe,DIGIT3_OFF,148,2025-12-09 18:13:21.051162,106.975159,0.000000,,5,,,,keyboard,digit#3 off,"{""value"":5,""note"":""digit#3 off"",""pd_used"":0}",2,0.016667,60.000000,1
Alavie_G01_CNS-DDJXM3V64,test,OFFmed_OFFstim,20251209_181124,2025-12-09 18:11:34.076012,1,1,probe,POSTDIG_FIX3_ON,153,2025-12-09 18:13:21.052017,106.975159,1.584001,,,,,,keyboard,after digit#3,"{""note"":""after digit#3""}",2,0.016667,60.000000,1
Alavie_G01_CNS-DDJXM3V64,test,OFFmed_OFFstim,20251209_181124,2025-12-09 18:11:34.076012,1,1,probe,POSTDIG_FIX3_OFF,158,2025-12-09 18:13:22.635760,108.559160,0.032566,,,,,,keyboard,after digit#3,"{""note"":""after digit#3"",""pd_used"":0}",2,0.016667,60.000000,1
Alavie_G01_CNS-DDJXM3V64,test,OFFmed_OFFstim,20251209_181124,2025-12-09 18:11:34.076012,1,1,probe,DIGIT_RECALL_LINE_4,164,2025-12-09 18:13:22.667718,108.591726,1.130259,,4,,,,keyboard,next recall question,"{""value"":4,""note"":""next recall question"",""pd_used"":1}",2,0.016667,60.000000,1
Alavie_G01_CNS-DDJXM3V64,test,OFFmed_OFFstim,20251209_181124,2025-12-09 18:11:34.076012,1,1,probe,PROBE_DIGIT_OK_4,71,2025-12-09 18:13:24.267065,109.721985,0.477880,10.642559,slot#4,NaN,,,keyboard,probe_digit#4,"{""value"":""slot#4"",""entered"":null,""rt"":10.642559099942446,""note"":""probe_digit#4""}",2,0.016667,60.000000,1
Alavie_G01_CNS-DDJXM3V64,test,OFFmed_OFFstim,20251209_181124,2025-12-09 18:11:34.076012,1,1,probe,DIGIT4_OFF,149,2025-12-09 18:13:24.275901,110.199864,0.000000,,5,,,,keyboard,digit#4 off,"{""value"":5,""note"":""digit#4 off"",""pd_used"":0}",2,0.016667,60.000000,1
Alavie_G01_CNS-DDJXM3V64,test,OFFmed_OFFstim,20251209_181124,2025-12-09 18:11:34.076012,1,1,probe,POSTDIG_FIX4_ON,154,2025-12-09 18:13:24.276740,110.199864,1.834285,,,,,,keyboard,after digit#4,"{""note"":""after digit#4""}",2,0.016667,60.000000,1
Alavie_G01_CNS-DDJXM3V64,test,OFFmed_OFFstim,20251209_181124,2025-12-09 18:11:34.076012,1,1,probe,POSTDIG_FIX4_OFF,159,2025-12-09 18:13:26.110425,112.034149,0.031405,,,,,,keyboard,after digit#4,"{""note"":""after digit#4"",""pd_used"":0}",2,0.016667,60.000000,1
Alavie_G01_CNS-DDJXM3V64,test,OFFmed_OFFstim,20251209_181124,2025-12-09 18:11:34.076012,1,1,probe,DIGIT_RECALL_LINE_5,165,2025-12-09 18:13:26.141717,112.065554,0.465207,,5,,,,keyboard,next recall question,"{""value"":5,""note"":""next recall question"",""pd_used"":1}",2,0.016667,60.000000,1
Alavie_G01_CNS-DDJXM3V64,test,OFFmed_OFFstim,20251209_181124,2025-12-09 18:11:34.076012,1,1,probe,PROBE_DIGIT_OK_5,71,2025-12-09 18:13:27.067120,112.530761,0.469943,13.451335,slot#5,NaN,,,keyboard,probe_digit#5,"{""value"":""slot#5"",""entered"":null,""rt"":13.451335499994457,""note"":""probe_digit#5""}",2,0.016667,60.000000,1
Alavie_G01_CNS-DDJXM3V64,test,OFFmed_OFFstim,20251209_181124,2025-12-09 18:11:34.076012,1,1,probe,DIGIT5_OFF,150,2025-12-09 18:13:27.076730,113.000704,0.000000,,5,,,,keyboard,digit#5 off,"{""value"":5,""note"":""digit#5 off"",""pd_used"":0}",2,0.016667,60.000000,1
Alavie_G01_CNS-DDJXM3V64,test,OFFmed_OFFstim,20251209_181124,2025-12-09 18:11:34.076012,1,1,probe,POSTDIG_FIX5_ON,155,2025-12-09 18:13:27.077885,113.000704,3.485161,,,,,,keyboard,after digit#5,"{""note"":""after digit#5""}",2,0.016667,60.000000,1
Alavie_G01_CNS-DDJXM3V64,test,OFFmed_OFFstim,20251209_181124,2025-12-09 18:11:34.076012,1,1,probe,POSTDIG_FIX5_OFF,160,2025-12-09 18:13:30.562950,116.485865,0.012719,,,,,,keyboard,after digit#5,"{""note"":""after digit#5"",""pd_used"":0}",2,0.016667,60.000000,1
Alavie_G01_CNS-DDJXM3V64,test,OFFmed_OFFstim,20251209_181124,2025-12-09 18:11:34.076012,1,1,probe,PROBE_DONE,73,2025-12-09 18:13:30.575109,116.498583,0.001537,,,,,,keyboard,probe complete,"{""value"":"""",""note"":""probe complete""}",2,0.016667,60.000000,1
Alavie_G01_CNS-DDJXM3V64,test,OFFmed_OFFstim,20251209_181124,2025-12-09 18:11:34.076012,1,1,probe,TRIAL_END,21,2025-12-09 18:13:30.576042,116.500120,0.000725,,,,,,keyboard,,{},2,0.016667,60.000000,1
Alavie_G01_CNS-DDJXM3V64,test,OFFmed_OFFstim,20251209_181124,2025-12-09 18:11:34.076012,1,1,probe,BLOCK_END,11,2025-12-09 18:13:30.576748,116.500845,0.237255,,,,,,keyboard,,{},2,0.016667,60.000000,1
Alavie_G01_CNS-DDJXM3V64,test,OFFmed_OFFstim,20251209_181124,2025-12-09 18:11:34.076012,1,1,probe,SESSION_END,3,2025-12-09 18:13:30.814462,116.738100,NaN,,,,,,keyboard,,{},2,0.016667,60.000000,1
