file_version,subject,condition,session,task_start_time,block,trial,phase,event_name,event_code,wall_clock,t_rel_sec,duration_to_next,rt,value_shown,entered_value,correct,key_name,device,note,json,screen_index,ifi,refresh_hz,pd_used
Alavie_G01_CNS-DDJXM3V64,test,OFFmed_OFFstim,20251208_161947,2025-12-08 16:20:02.524304,NaN,NaN,,START_PAGE_ON,4,2025-12-08 16:20:04.010811,1.482958,0.016792,,,,,,keyboard,,"{""pd_used"":0}",2,0.016667,60.000000,1
Alavie_G01_CNS-DDJXM3V64,test,OFFmed_OFFstim,20251208_161947,2025-12-08 16:20:02.524304,NaN,NaN,,START_PAGE_ON,4,2025-12-08 16:20:04.010811,1.482958,12.342536,,,,,,keyboard,,"{""pd_used"":0}",2,0.016667,60.000000,1
Alavie_G01_CNS-DDJXM3V64,test,OFFmed_OFFstim,20251208_161947,2025-12-08 16:20:02.524304,NaN,NaN,,START_PAGE_ON,4,2025-12-08 16:20:04.010811,1.482958,12.668609,,,,,,keyboard,,"{""pd_used"":0}",2,0.016667,60.000000,1
Alavie_G01_CNS-DDJXM3V64,test,OFFmed_OFFstim,20251208_161947,2025-12-08 16:20:02.524304,NaN,NaN,,SESSION_START,1,2025-12-08 16:20:16.677358,14.151567,0.003485,,,,,,keyboard,,{},2,0.016667,60.000000,1
Alavie_G01_CNS-DDJXM3V64,test,OFFmed_OFFstim,20251208_161947,2025-12-08 16:20:02.524304,1,NaN,,BLOCK_START,10,2025-12-08 16:20:16.679258,14.155052,0.000791,,,,,,keyboard,,{},2,0.016667,60.000000,1
Alavie_G01_CNS-DDJXM3V64,test,OFFmed_OFFstim,20251208_161947,2025-12-08 16:20:02.524304,1,1,,TRIAL_CHANGE,22,2025-12-08 16:20:16.680049,14.155843,0.001152,,,,,,keyboard,trial transition,"{""note"":""trial transition""}",2,0.016667,60.000000,1
Alavie_G01_CNS-DDJXM3V64,test,OFFmed_OFFstim,20251208_161947,2025-12-08 16:20:02.524304,1,1,,TRIAL_START,20,2025-12-08 16:20:16.681137,14.156995,0.010666,,,,,,keyboard,,{},2,0.016667,60.000000,1
Alavie_G01_CNS-DDJXM3V64,test,OFFmed_OFFstim,20251208_161947,2025-12-08 16:20:02.524304,1,1,fix1,FIX1_ON,30,2025-12-08 16:20:16.691810,14.167661,3.085203,,,,,,keyboard,,"{""pd_used"":0}",2,0.016667,60.000000,1
Alavie_G01_CNS-DDJXM3V64,test,OFFmed_OFFstim,20251208_161947,2025-12-08 16:20:02.524304,1,1,fix1,FIX1_OFF,31,2025-12-08 16:20:19.777366,17.252865,9.285236,,,,,,keyboard,,"{""pd_used"":0}",2,0.016667,60.000000,1
Alavie_G01_CNS-DDJXM3V64,test,OFFmed_OFFstim,20251208_161947,2025-12-08 16:20:02.524304,1,1,digit,DIGIT1_ON,141,2025-12-08 16:20:29.062717,26.538101,0.510755,,2,,,,keyboard,digit#1 shown,"{""value"":2,""note"":""digit#1 shown"",""pd_used"":1}",2,0.016667,60.000000,1
Alavie_G01_CNS-DDJXM3V64,test,OFFmed_OFFstim,20251208_161947,2025-12-08 16:20:02.524304,1,1,digit,DIGIT1_OFF,146,2025-12-08 16:20:29.574039,27.048855,0.000000,,2,,,,keyboard,digit#1 off,"{""value"":2,""note"":""digit#1 off"",""pd_used"":0}",2,0.016667,60.000000,1
Alavie_G01_CNS-DDJXM3V64,test,OFFmed_OFFstim,20251208_161947,2025-12-08 16:20:02.524304,1,1,digit,POSTDIG_FIX1_ON,151,2025-12-08 16:20:29.575957,27.048855,1.929687,,,,,,keyboard,after digit#1,"{""note"":""after digit#1""}",2,0.016667,60.000000,1
Alavie_G01_CNS-DDJXM3V64,test,OFFmed_OFFstim,20251208_161947,2025-12-08 16:20:02.524304,1,1,digit,POSTDIG_FIX1_OFF,156,2025-12-08 16:20:31.503299,28.978542,5.845315,,,,,,keyboard,after digit#1,"{""note"":""after digit#1"",""pd_used"":0}",2,0.016667,60.000000,1
Alavie_G01_CNS-DDJXM3V64,test,OFFmed_OFFstim,20251208_161947,2025-12-08 16:20:02.524304,1,1,digit,DIGIT2_ON,142,2025-12-08 16:20:37.348421,34.823857,0.508743,,1,,,,keyboard,digit#2 shown,"{""value"":1,""note"":""digit#2 shown"",""pd_used"":1}",2,0.016667,60.000000,1
Alavie_G01_CNS-DDJXM3V64,test,OFFmed_OFFstim,20251208_161947,2025-12-08 16:20:02.524304,1,1,digit,DIGIT2_OFF,147,2025-12-08 16:20:37.857060,35.332600,0.000000,,1,,,,keyboard,digit#2 off,"{""value"":1,""note"":""digit#2 off"",""pd_used"":0}",2,0.016667,60.000000,1
Alavie_G01_CNS-DDJXM3V64,test,OFFmed_OFFstim,20251208_161947,2025-12-08 16:20:02.524304,1,1,digit,POSTDIG_FIX2_ON,152,2025-12-08 16:20:37.857968,35.332600,1.740878,,,,,,keyboard,after digit#2,"{""note"":""after digit#2""}",2,0.016667,60.000000,1
Alavie_G01_CNS-DDJXM3V64,test,OFFmed_OFFstim,20251208_161947,2025-12-08 16:20:02.524304,1,1,digit,POSTDIG_FIX2_OFF,157,2025-12-08 16:20:39.598254,37.073478,15.213501,,,,,,keyboard,after digit#2,"{""note"":""after digit#2"",""pd_used"":0}",2,0.016667,60.000000,1
Alavie_G01_CNS-DDJXM3V64,test,OFFmed_OFFstim,20251208_161947,2025-12-08 16:20:02.524304,1,1,digit,DIGIT3_ON,143,2025-12-08 16:20:54.822057,52.286979,1.192290,,9,,,,keyboard,digit#3 shown,"{""value"":9,""note"":""digit#3 shown"",""pd_used"":1}",2,0.016667,60.000000,1
Alavie_G01_CNS-DDJXM3V64,test,OFFmed_OFFstim,20251208_161947,2025-12-08 16:20:02.524304,1,1,digit,DIGIT3_OFF,148,2025-12-08 16:20:56.014844,53.479269,0.000000,,9,,,,keyboard,digit#3 off,"{""value"":9,""note"":""digit#3 off"",""pd_used"":0}",2,0.016667,60.000000,1
Alavie_G01_CNS-DDJXM3V64,test,OFFmed_OFFstim,20251208_161947,2025-12-08 16:20:02.524304,1,1,digit,POSTDIG_FIX3_ON,153,2025-12-08 16:20:56.592803,53.479269,3.845066,,,,,,keyboard,after digit#3,"{""note"":""after digit#3""}",2,0.016667,60.000000,1
Alavie_G01_CNS-DDJXM3V64,test,OFFmed_OFFstim,20251208_161947,2025-12-08 16:20:02.524304,1,1,digit,POSTDIG_FIX3_OFF,158,2025-12-08 16:20:59.865741,57.324335,1.836700,,,,,,keyboard,after digit#3,"{""note"":""after digit#3"",""pd_used"":0}",2,0.016667,60.000000,1
Alavie_G01_CNS-DDJXM3V64,test,OFFmed_OFFstim,20251208_161947,2025-12-08 16:20:02.524304,1,1,digit,DIGIT4_ON,144,2025-12-08 16:21:01.685520,59.161036,0.514478,,5,,,,keyboard,digit#4 shown,"{""value"":5,""note"":""digit#4 shown"",""pd_used"":1}",2,0.016667,60.000000,1
Alavie_G01_CNS-DDJXM3V64,test,OFFmed_OFFstim,20251208_161947,2025-12-08 16:20:02.524304,1,1,digit,DIGIT4_OFF,149,2025-12-08 16:21:02.200079,59.675514,0.000000,,5,,,,keyboard,digit#4 off,"{""value"":5,""note"":""digit#4 off"",""pd_used"":0}",2,0.016667,60.000000,1
Alavie_G01_CNS-DDJXM3V64,test,OFFmed_OFFstim,20251208_161947,2025-12-08 16:20:02.524304,1,1,digit,POSTDIG_FIX4_ON,154,2025-12-08 16:21:02.202075,59.675514,1.554645,,,,,,keyboard,after digit#4,"{""note"":""after digit#4""}",2,0.016667,60.000000,1
Alavie_G01_CNS-DDJXM3V64,test,OFFmed_OFFstim,20251208_161947,2025-12-08 16:20:02.524304,1,1,digit,POSTDIG_FIX4_OFF,159,2025-12-08 16:21:03.755645,61.230159,0.652325,,,,,,keyboard,after digit#4,"{""note"":""after digit#4"",""pd_used"":0}",2,0.016667,60.000000,1
Alavie_G01_CNS-DDJXM3V64,test,OFFmed_OFFstim,20251208_161947,2025-12-08 16:20:02.524304,1,1,digit,DIGIT5_ON,145,2025-12-08 16:21:04.407016,61.882484,0.514849,,3,,,,keyboard,digit#5 shown,"{""value"":3,""note"":""digit#5 shown"",""pd_used"":1}",2,0.016667,60.000000,1
Alavie_G01_CNS-DDJXM3V64,test,OFFmed_OFFstim,20251208_161947,2025-12-08 16:20:02.524304,1,1,digit,DIGIT5_OFF,150,2025-12-08 16:21:04.921811,62.397333,0.000000,,3,,,,keyboard,digit#5 off,"{""value"":3,""note"":""digit#5 off"",""pd_used"":0}",2,0.016667,60.000000,1
Alavie_G01_CNS-DDJXM3V64,test,OFFmed_OFFstim,20251208_161947,2025-12-08 16:20:02.524304,1,1,digit,POSTDIG_FIX5_ON,155,2025-12-08 16:21:04.931472,62.397333,3.125551,,,,,,keyboard,after digit#5,"{""note"":""after digit#5""}",2,0.016667,60.000000,1
Alavie_G01_CNS-DDJXM3V64,test,OFFmed_OFFstim,20251208_161947,2025-12-08 16:20:02.524304,1,1,digit,POSTDIG_FIX5_OFF,160,2025-12-08 16:21:08.047725,65.522884,0.016636,,,,,,keyboard,after digit#5,"{""note"":""after digit#5"",""pd_used"":0}",2,0.016667,60.000000,1
Alavie_G01_CNS-DDJXM3V64,test,OFFmed_OFFstim,20251208_161947,2025-12-08 16:20:02.524304,1,1,distractor,DISTRACTOR_ON,50,2025-12-08 16:21:08.063803,65.539520,3.489018,,2+9=10,,,,keyboard,,"{""value"":""2+9=10"",""isCorrectTruth"":false,""trueSum"":11,""pd_used"":1}",2,0.016667,60.000000,1
Alavie_G01_CNS-DDJXM3V64,test,OFFmed_OFFstim,20251208_161947,2025-12-08 16:20:02.524304,1,1,distractor,DISTRACTOR_ANS,51,2025-12-08 16:21:12.083736,69.028538,0.000000,3.489018,2+9=10,F,1,,keyboard,key= (False),"{""value"":""2+9=10"",""entered"":""F"",""rt"":3.4890177000779659,""correct"":1,""note"":""key= (False)"",""truth"":false,""trueSum"":11,""shownSum"":10,""a"":2,""b"":9}",2,0.016667,60.000000,1
Alavie_G01_CNS-DDJXM3V64,test,OFFmed_OFFstim,20251208_161947,2025-12-08 16:20:02.524304,1,1,distractor,ANS_CORRECT,100,2025-12-08 16:21:12.085829,69.028538,0.541724,,,,,,keyboard,,{},2,0.016667,60.000000,1
Alavie_G01_CNS-DDJXM3V64,test,OFFmed_OFFstim,20251208_161947,2025-12-08 16:20:02.524304,1,1,distractor,DISTRACTOR_OFF,52,2025-12-08 16:21:12.094500,69.570262,0.000000,,,,,,keyboard,,"{""pd_used"":0}",2,0.016667,60.000000,1
Alavie_G01_CNS-DDJXM3V64,test,OFFmed_OFFstim,20251208_161947,2025-12-08 16:20:02.524304,1,1,distractor,FIX2_ON,60,2025-12-08 16:21:12.095497,69.570262,3.134287,,,,,,keyboard,immediate after response,"{""note"":""immediate after response""}",2,0.016667,60.000000,1
Alavie_G01_CNS-DDJXM3V64,test,OFFmed_OFFstim,20251208_161947,2025-12-08 16:20:02.524304,1,1,fix2,FIX2_OFF,61,2025-12-08 16:21:15.229260,72.704550,0.009375,,,,,,keyboard,,"{""pd_used"":0}",2,0.016667,60.000000,1
