file_version,subject,condition,session,task_start_time,block,trial,phase,event_name,event_code,wall_clock,t_rel_sec,duration_to_next,rt,value_shown,entered_value,correct,key_name,device,note,json,screen_index,ifi,refresh_hz,pd_used
Sergio_G01_CNS-LLF5HT7Y0,cpeeg,offmed_offstim,20260312_130141,2026-03-12 13:01:57.554376,NaN,NaN,,MIC_NOISEFLOOR,6,2026-03-12 13:01:59.518148,1.963524,4.157053,,,,,,keyboard,,{},2,NaN,NaN,1
Sergio_G01_CNS-LLF5HT7Y0,cpeeg,offmed_offstim,20260312_130141,2026-03-12 13:01:57.554376,NaN,NaN,,MIC_REC_SPEECH,7,2026-03-12 13:02:03.675125,6.120577,6.670601,,,,,,keyboard,,{},2,NaN,NaN,1
Sergio_G01_CNS-LLF5HT7Y0,cpeeg,offmed_offstim,20260312_130141,2026-03-12 13:01:57.554376,NaN,NaN,,SESSION_START,1,2026-03-12 13:03:17.591479,80.034998,0.004618,,,,,,keyboard,,{},2,0.008333,120.000000,1
Sergio_G01_CNS-LLF5HT7Y0,cpeeg,offmed_offstim,20260312_130141,2026-03-12 13:01:57.554376,1,NaN,,BLOCK_START,10,2026-03-12 13:03:17.594666,80.039617,0.056654,,,,,,keyboard,,{},2,0.008333,120.000000,1
Sergio_G01_CNS-LLF5HT7Y0,cpeeg,offmed_offstim,20260312_130141,2026-03-12 13:01:57.554376,1,0,reading,START_PAGE_ON,4,2026-03-12 13:03:17.693905,80.096270,0.055047,,,,,,keyboard,,"{""pd_used"":0}",2,0.008333,120.000000,1
Sergio_G01_CNS-LLF5HT7Y0,cpeeg,offmed_offstim,20260312_130141,2026-03-12 13:01:57.554376,1,0,reading,START_PAGE_ON,4,2026-03-12 13:03:17.693905,80.096270,152.266041,,,,,,keyboard,,"{""pd_used"":0}",2,0.008333,120.000000,1
Sergio_G01_CNS-LLF5HT7Y0,cpeeg,offmed_offstim,20260312_130141,2026-03-12 13:01:57.554376,1,0,reading,START_PAGE_ON,4,2026-03-12 13:03:17.693905,80.096270,152.643528,,,,,,keyboard,,"{""pd_used"":0}",2,0.008333,120.000000,1
Sergio_G01_CNS-LLF5HT7Y0,cpeeg,offmed_offstim,20260312_130141,2026-03-12 13:01:57.554376,1,0,reading,READING_START,23,2026-03-12 13:05:50.295031,232.739799,0.064195,,,,,,keyboard,,{},2,0.008333,120.000000,1
Sergio_G01_CNS-LLF5HT7Y0,cpeeg,offmed_offstim,20260312_130141,2026-03-12 13:01:57.554376,1,0,reading,DIGIT_READ1_ON,101,2026-03-12 13:05:50.403609,232.803994,0.103371,,6,,,,keyboard,digit#1 shown,"{""value"":6,""note"":""digit#1 shown"",""pd_used"":1}",2,0.008333,120.000000,1
Sergio_G01_CNS-LLF5HT7Y0,cpeeg,offmed_offstim,20260312_130141,2026-03-12 13:01:57.554376,1,0,reading,PROBE_TIMEOUT,72,2026-03-12 13:05:50.462546,232.907364,0.002192,,,,,,keyboard,digits_entered=,"{""note"":""digits_entered=""}",2,0.008333,120.000000,1
Sergio_G01_CNS-LLF5HT7Y0,cpeeg,offmed_offstim,20260312_130141,2026-03-12 13:01:57.554376,1,0,reading,READING_END,24,2026-03-12 13:05:50.464218,232.909557,0.054814,,,,,,keyboard,,{},2,0.008333,120.000000,1
Sergio_G01_CNS-LLF5HT7Y0,cpeeg,offmed_offstim,20260312_130141,2026-03-12 13:01:57.554376,1,0,reading,START_PAGE_ON,4,2026-03-12 13:05:50.563489,232.964371,0.056956,,,,,,keyboard,,"{""pd_used"":0}",2,0.008333,120.000000,1
Sergio_G01_CNS-LLF5HT7Y0,cpeeg,offmed_offstim,20260312_130141,2026-03-12 13:01:57.554376,1,0,reading,START_PAGE_ON,4,2026-03-12 13:05:50.563489,232.964371,16.970131,,,,,,keyboard,,"{""pd_used"":0}",2,0.008333,120.000000,1
Sergio_G01_CNS-LLF5HT7Y0,cpeeg,offmed_offstim,20260312_130141,2026-03-12 13:01:57.554376,1,0,reading,START_PAGE_ON,4,2026-03-12 13:05:50.563489,232.964371,17.347549,,,,,,keyboard,,"{""pd_used"":0}",2,0.008333,120.000000,1
Sergio_G01_CNS-LLF5HT7Y0,cpeeg,offmed_offstim,20260312_130141,2026-03-12 13:01:57.554376,1,1,reading,TRIAL_CHANGE,22,2026-03-12 13:06:07.867098,250.311920,0.002205,,,,,,keyboard,trial transition,"{""note"":""trial transition""}",2,0.008333,120.000000,1
Sergio_G01_CNS-LLF5HT7Y0,cpeeg,offmed_offstim,20260312_130141,2026-03-12 13:01:57.554376,1,1,reading,TRIAL_START,20,2026-03-12 13:06:07.868774,250.314125,0.060279,,,,,,keyboard,,{},2,0.008333,120.000000,1
Sergio_G01_CNS-LLF5HT7Y0,cpeeg,offmed_offstim,20260312_130141,2026-03-12 13:01:57.554376,1,1,fix1,FIX1_ON,30,2026-03-12 13:06:07.973824,250.374405,3.476945,,,,,,keyboard,,"{""pd_used"":0}",2,0.008333,120.000000,1
Sergio_G01_CNS-LLF5HT7Y0,cpeeg,offmed_offstim,20260312_130141,2026-03-12 13:01:57.554376,1,1,fix1,FIX1_OFF,31,2026-03-12 13:06:11.450258,253.851349,0.054314,,,,,,keyboard,,"{""pd_used"":0}",2,0.008333,120.000000,1
Sergio_G01_CNS-LLF5HT7Y0,cpeeg,offmed_offstim,20260312_130141,2026-03-12 13:01:57.554376,1,1,digit,DIGIT1_ON,141,2026-03-12 13:06:11.503791,253.905663,0.554741,,7,,,,keyboard,digit#1 shown,"{""value"":7,""note"":""digit#1 shown"",""pd_used"":1}",2,0.008333,120.000000,1
Sergio_G01_CNS-LLF5HT7Y0,cpeeg,offmed_offstim,20260312_130141,2026-03-12 13:01:57.554376,1,1,digit,DIGIT1_OFF,146,2026-03-12 13:06:12.059428,254.460404,0.000000,,7,,,,keyboard,digit#1 off,"{""value"":7,""note"":""digit#1 off"",""pd_used"":0}",2,0.008333,120.000000,1
Sergio_G01_CNS-LLF5HT7Y0,cpeeg,offmed_offstim,20260312_130141,2026-03-12 13:01:57.554376,1,1,digit,POSTDIG_FIX1_ON,151,2026-03-12 13:06:12.062127,254.460404,1.970492,,,,,,keyboard,after digit#1,"{""note"":""after digit#1""}",2,0.008333,120.000000,1
Sergio_G01_CNS-LLF5HT7Y0,cpeeg,offmed_offstim,20260312_130141,2026-03-12 13:01:57.554376,1,1,digit,POSTDIG_FIX1_OFF,156,2026-03-12 13:06:14.029741,256.430896,0.055015,,,,,,keyboard,after digit#1,"{""note"":""after digit#1"",""pd_used"":0}",2,0.008333,120.000000,1
Sergio_G01_CNS-LLF5HT7Y0,cpeeg,offmed_offstim,20260312_130141,2026-03-12 13:01:57.554376,1,1,digit,DIGIT2_ON,142,2026-03-12 13:06:14.085527,256.485911,0.555623,,5,,,,keyboard,digit#2 shown,"{""value"":5,""note"":""digit#2 shown"",""pd_used"":1}",2,0.008333,120.000000,1
Sergio_G01_CNS-LLF5HT7Y0,cpeeg,offmed_offstim,20260312_130141,2026-03-12 13:01:57.554376,1,1,digit,DIGIT2_OFF,147,2026-03-12 13:06:14.640068,257.041533,0.000000,,5,,,,keyboard,digit#2 off,"{""value"":5,""note"":""digit#2 off"",""pd_used"":0}",2,0.008333,120.000000,1
Sergio_G01_CNS-LLF5HT7Y0,cpeeg,offmed_offstim,20260312_130141,2026-03-12 13:01:57.554376,1,1,digit,POSTDIG_FIX2_ON,152,2026-03-12 13:06:14.641907,257.041533,1.994277,,,,,,keyboard,after digit#2,"{""note"":""after digit#2""}",2,0.008333,120.000000,1
Sergio_G01_CNS-LLF5HT7Y0,cpeeg,offmed_offstim,20260312_130141,2026-03-12 13:01:57.554376,1,1,digit,POSTDIG_FIX2_OFF,157,2026-03-12 13:06:16.635167,259.035810,0.055634,,,,,,keyboard,after digit#2,"{""note"":""after digit#2"",""pd_used"":0}",2,0.008333,120.000000,1
Sergio_G01_CNS-LLF5HT7Y0,cpeeg,offmed_offstim,20260312_130141,2026-03-12 13:01:57.554376,1,1,digit,DIGIT3_ON,143,2026-03-12 13:06:16.690921,259.091444,0.556111,,7,,,,keyboard,digit#3 shown,"{""value"":7,""note"":""digit#3 shown"",""pd_used"":1}",2,0.008333,120.000000,1
Sergio_G01_CNS-LLF5HT7Y0,cpeeg,offmed_offstim,20260312_130141,2026-03-12 13:01:57.554376,1,1,digit,DIGIT3_OFF,148,2026-03-12 13:06:17.246884,259.647555,0.000000,,7,,,,keyboard,digit#3 off,"{""value"":7,""note"":""digit#3 off"",""pd_used"":0}",2,0.008333,120.000000,1
Sergio_G01_CNS-LLF5HT7Y0,cpeeg,offmed_offstim,20260312_130141,2026-03-12 13:01:57.554376,1,1,digit,POSTDIG_FIX3_ON,153,2026-03-12 13:06:17.249329,259.647555,2.029136,,,,,,keyboard,after digit#3,"{""note"":""after digit#3""}",2,0.008333,120.000000,1
Sergio_G01_CNS-LLF5HT7Y0,cpeeg,offmed_offstim,20260312_130141,2026-03-12 13:01:57.554376,1,1,digit,POSTDIG_FIX3_OFF,158,2026-03-12 13:06:19.275809,261.676691,0.055576,,,,,,keyboard,after digit#3,"{""note"":""after digit#3"",""pd_used"":0}",2,0.008333,120.000000,1
Sergio_G01_CNS-LLF5HT7Y0,cpeeg,offmed_offstim,20260312_130141,2026-03-12 13:01:57.554376,1,1,digit,DIGIT4_ON,144,2026-03-12 13:06:19.330454,261.732267,0.554252,,8,,,,keyboard,digit#4 shown,"{""value"":8,""note"":""digit#4 shown"",""pd_used"":1}",2,0.008333,120.000000,1
Sergio_G01_CNS-LLF5HT7Y0,cpeeg,offmed_offstim,20260312_130141,2026-03-12 13:01:57.554376,1,1,digit,DIGIT4_OFF,149,2026-03-12 13:06:19.886251,262.286518,0.000000,,8,,,,keyboard,digit#4 off,"{""value"":8,""note"":""digit#4 off"",""pd_used"":0}",2,0.008333,120.000000,1
Sergio_G01_CNS-LLF5HT7Y0,cpeeg,offmed_offstim,20260312_130141,2026-03-12 13:01:57.554376,1,1,digit,POSTDIG_FIX4_ON,154,2026-03-12 13:06:19.888582,262.286518,1.801142,,,,,,keyboard,after digit#4,"{""note"":""after digit#4""}",2,0.008333,120.000000,1
Sergio_G01_CNS-LLF5HT7Y0,cpeeg,offmed_offstim,20260312_130141,2026-03-12 13:01:57.554376,1,1,digit,POSTDIG_FIX4_OFF,159,2026-03-12 13:06:21.687138,264.087660,0.055766,,,,,,keyboard,after digit#4,"{""note"":""after digit#4"",""pd_used"":0}",2,0.008333,120.000000,1
Sergio_G01_CNS-LLF5HT7Y0,cpeeg,offmed_offstim,20260312_130141,2026-03-12 13:01:57.554376,1,1,digit,DIGIT5_ON,145,2026-03-12 13:06:21.742686,264.143426,0.555712,,5,,,,keyboard,digit#5 shown,"{""value"":5,""note"":""digit#5 shown"",""pd_used"":1}",2,0.008333,120.000000,1
Sergio_G01_CNS-LLF5HT7Y0,cpeeg,offmed_offstim,20260312_130141,2026-03-12 13:01:57.554376,1,1,digit,DIGIT5_OFF,150,2026-03-12 13:06:22.298590,264.699138,0.000000,,5,,,,keyboard,digit#5 off,"{""value"":5,""note"":""digit#5 off"",""pd_used"":0}",2,0.008333,120.000000,1
Sergio_G01_CNS-LLF5HT7Y0,cpeeg,offmed_offstim,20260312_130141,2026-03-12 13:01:57.554376,1,1,digit,POSTDIG_FIX5_ON,155,2026-03-12 13:06:22.300951,264.699138,3.253053,,,,,,keyboard,after digit#5,"{""note"":""after digit#5""}",2,0.008333,120.000000,1
Sergio_G01_CNS-LLF5HT7Y0,cpeeg,offmed_offstim,20260312_130141,2026-03-12 13:01:57.554376,1,1,digit,POSTDIG_FIX5_OFF,160,2026-03-12 13:06:25.550207,267.952191,0.054986,,,,,,keyboard,after digit#5,"{""note"":""after digit#5"",""pd_used"":0}",2,0.008333,120.000000,1
Sergio_G01_CNS-LLF5HT7Y0,cpeeg,offmed_offstim,20260312_130141,2026-03-12 13:01:57.554376,1,1,distractor,DISTRACTOR_ON,50,2026-03-12 13:06:25.605770,268.007177,6.324024,,2+7=9,,,,keyboard,,"{""value"":""2+7=9"",""isCorrectTruth"":true,""trueSum"":9,""pd_used"":1}",2,0.008333,120.000000,1
Sergio_G01_CNS-LLF5HT7Y0,cpeeg,offmed_offstim,20260312_130141,2026-03-12 13:01:57.554376,1,1,distractor,DISTRACTOR_ANS,51,2026-03-12 13:06:32.443765,274.331201,0.000000,6.324024,2+7=9,F,0,,keyboard,key= (False),"{""value"":""2+7=9"",""entered"":""F"",""rt"":6.3240243999753147,""correct"":0,""note"":""key= (False)"",""truth"":true,""trueSum"":9,""shownSum"":9,""a"":2,""b"":7}",2,0.008333,120.000000,1
Sergio_G01_CNS-LLF5HT7Y0,cpeeg,offmed_offstim,20260312_130141,2026-03-12 13:01:57.554376,1,1,distractor,ANS_WRONG,200,2026-03-12 13:06:32.489891,274.331201,0.613866,,,,,,keyboard,,{},2,0.008333,120.000000,1
Sergio_G01_CNS-LLF5HT7Y0,cpeeg,offmed_offstim,20260312_130141,2026-03-12 13:01:57.554376,1,1,distractor,DISTRACTOR_OFF,52,2026-03-12 13:06:32.544000,274.945067,0.000000,,,,,,keyboard,,"{""pd_used"":0}",2,0.008333,120.000000,1
Sergio_G01_CNS-LLF5HT7Y0,cpeeg,offmed_offstim,20260312_130141,2026-03-12 13:01:57.554376,1,1,distractor,FIX2_ON,60,2026-03-12 13:06:32.546564,274.945067,3.227655,,,,,,keyboard,immediate after response,"{""note"":""immediate after response""}",2,0.008333,120.000000,1
Sergio_G01_CNS-LLF5HT7Y0,cpeeg,offmed_offstim,20260312_130141,2026-03-12 13:01:57.554376,1,1,fix2,FIX2_OFF,61,2026-03-12 13:06:35.772020,278.172722,0.055874,,,,,,keyboard,,"{""pd_used"":0}",2,0.008333,120.000000,1
Sergio_G01_CNS-LLF5HT7Y0,cpeeg,offmed_offstim,20260312_130141,2026-03-12 13:01:57.554376,1,1,probe,DIGIT_RECALL_LINE_1,161,2026-03-12 13:06:35.827586,278.228596,5.915617,,1,,,,keyboard,first recall question,"{""value"":1,""note"":""first recall question"",""pd_used"":1}",2,0.008333,120.000000,1
Sergio_G01_CNS-LLF5HT7Y0,cpeeg,offmed_offstim,20260312_130141,2026-03-12 13:01:57.554376,1,1,probe,PROBE_DIGIT_OK_1,71,2026-03-12 13:06:42.041979,284.144213,0.395965,5.924379,slot#1,NaN,,,keyboard,probe_digit#1,"{""value"":""slot#1"",""entered"":null,""rt"":5.9243794999783859,""note"":""probe_digit#1""}",2,0.008333,120.000000,1
Sergio_G01_CNS-LLF5HT7Y0,cpeeg,offmed_offstim,20260312_130141,2026-03-12 13:01:57.554376,1,1,probe,DIGIT1_OFF,146,2026-03-12 13:06:42.140648,284.540178,0.000000,,5,,,,keyboard,digit#1 off,"{""value"":5,""note"":""digit#1 off"",""pd_used"":0}",2,0.008333,120.000000,1
Sergio_G01_CNS-LLF5HT7Y0,cpeeg,offmed_offstim,20260312_130141,2026-03-12 13:01:57.554376,1,1,probe,POSTDIG_FIX1_ON,151,2026-03-12 13:06:42.142986,284.540178,1.971321,,,,,,keyboard,after digit#1,"{""note"":""after digit#1""}",2,0.008333,120.000000,1
Sergio_G01_CNS-LLF5HT7Y0,cpeeg,offmed_offstim,20260312_130141,2026-03-12 13:01:57.554376,1,1,probe,POSTDIG_FIX1_OFF,156,2026-03-12 13:06:44.108745,286.511499,0.059157,,,,,,keyboard,after digit#1,"{""note"":""after digit#1"",""pd_used"":0}",2,0.008333,120.000000,1
Sergio_G01_CNS-LLF5HT7Y0,cpeeg,offmed_offstim,20260312_130141,2026-03-12 13:01:57.554376,1,1,probe,DIGIT_RECALL_LINE_2,162,2026-03-12 13:06:44.168365,286.570656,4.805330,,2,,,,keyboard,next recall question,"{""value"":2,""note"":""next recall question"",""pd_used"":1}",2,0.008333,120.000000,1
Sergio_G01_CNS-LLF5HT7Y0,cpeeg,offmed_offstim,20260312_130141,2026-03-12 13:01:57.554376,1,1,probe,PROBE_DIGIT_OK_2,71,2026-03-12 13:06:49.262200,291.375986,0.381903,13.156152,slot#2,NaN,,,keyboard,probe_digit#2,"{""value"":""slot#2"",""entered"":null,""rt"":13.156152399955317,""note"":""probe_digit#2""}",2,0.008333,120.000000,1
Sergio_G01_CNS-LLF5HT7Y0,cpeeg,offmed_offstim,20260312_130141,2026-03-12 13:01:57.554376,1,1,probe,DIGIT2_OFF,147,2026-03-12 13:06:49.355615,291.757888,0.000000,,5,,,,keyboard,digit#2 off,"{""value"":5,""note"":""digit#2 off"",""pd_used"":0}",2,0.008333,120.000000,1
Sergio_G01_CNS-LLF5HT7Y0,cpeeg,offmed_offstim,20260312_130141,2026-03-12 13:01:57.554376,1,1,probe,POSTDIG_FIX2_ON,152,2026-03-12 13:06:49.356385,291.757888,1.713941,,,,,,keyboard,after digit#2,"{""note"":""after digit#2""}",2,0.008333,120.000000,1
Sergio_G01_CNS-LLF5HT7Y0,cpeeg,offmed_offstim,20260312_130141,2026-03-12 13:01:57.554376,1,1,probe,POSTDIG_FIX2_OFF,157,2026-03-12 13:06:51.067789,293.471829,0.057258,,,,,,keyboard,after digit#2,"{""note"":""after digit#2"",""pd_used"":0}",2,0.008333,120.000000,1
Sergio_G01_CNS-LLF5HT7Y0,cpeeg,offmed_offstim,20260312_130141,2026-03-12 13:01:57.554376,1,1,probe,DIGIT_RECALL_LINE_3,163,2026-03-12 13:06:51.124402,293.529088,0.580913,,3,,,,keyboard,next recall question,"{""value"":3,""note"":""next recall question"",""pd_used"":1}",2,0.008333,120.000000,1
Sergio_G01_CNS-LLF5HT7Y0,cpeeg,offmed_offstim,20260312_130141,2026-03-12 13:01:57.554376,1,1,probe,PROBE_DIGIT_OK_3,71,2026-03-12 13:06:52.043641,294.110001,0.428059,15.890167,slot#3,NaN,,,keyboard,probe_digit#3,"{""value"":""slot#3"",""entered"":null,""rt"":15.890167300007306,""note"":""probe_digit#3""}",2,0.008333,120.000000,1
Sergio_G01_CNS-LLF5HT7Y0,cpeeg,offmed_offstim,20260312_130141,2026-03-12 13:01:57.554376,1,1,probe,DIGIT3_OFF,148,2026-03-12 13:06:52.136711,294.538060,0.000000,,5,,,,keyboard,digit#3 off,"{""value"":5,""note"":""digit#3 off"",""pd_used"":0}",2,0.008333,120.000000,1
Sergio_G01_CNS-LLF5HT7Y0,cpeeg,offmed_offstim,20260312_130141,2026-03-12 13:01:57.554376,1,1,probe,POSTDIG_FIX3_ON,153,2026-03-12 13:06:52.137473,294.538060,1.790299,,,,,,keyboard,after digit#3,"{""note"":""after digit#3""}",2,0.008333,120.000000,1
Sergio_G01_CNS-LLF5HT7Y0,cpeeg,offmed_offstim,20260312_130141,2026-03-12 13:01:57.554376,1,1,probe,POSTDIG_FIX3_OFF,158,2026-03-12 13:06:53.924490,296.328359,0.057619,,,,,,keyboard,after digit#3,"{""note"":""after digit#3"",""pd_used"":0}",2,0.008333,120.000000,1
Sergio_G01_CNS-LLF5HT7Y0,cpeeg,offmed_offstim,20260312_130141,2026-03-12 13:01:57.554376,1,1,probe,DIGIT_RECALL_LINE_4,164,2026-03-12 13:06:53.981454,296.385978,2.030794,,4,,,,keyboard,next recall question,"{""value"":4,""note"":""next recall question"",""pd_used"":1}",2,0.008333,120.000000,1
Sergio_G01_CNS-LLF5HT7Y0,cpeeg,offmed_offstim,20260312_130141,2026-03-12 13:01:57.554376,1,1,probe,PROBE_DIGIT_OK_4,71,2026-03-12 13:06:56.293750,298.416772,0.372463,20.196938,slot#4,NaN,,,keyboard,probe_digit#4,"{""value"":""slot#4"",""entered"":null,""rt"":20.196938399923965,""note"":""probe_digit#4""}",2,0.008333,120.000000,1
Sergio_G01_CNS-LLF5HT7Y0,cpeeg,offmed_offstim,20260312_130141,2026-03-12 13:01:57.554376,1,1,probe,DIGIT4_OFF,149,2026-03-12 13:06:56.388453,298.789234,0.000000,,5,,,,keyboard,digit#4 off,"{""value"":5,""note"":""digit#4 off"",""pd_used"":0}",2,0.008333,120.000000,1
Sergio_G01_CNS-LLF5HT7Y0,cpeeg,offmed_offstim,20260312_130141,2026-03-12 13:01:57.554376,1,1,probe,POSTDIG_FIX4_ON,154,2026-03-12 13:06:56.390085,298.789234,1.643912,,,,,,keyboard,after digit#4,"{""note"":""after digit#4""}",2,0.008333,120.000000,1
Sergio_G01_CNS-LLF5HT7Y0,cpeeg,offmed_offstim,20260312_130141,2026-03-12 13:01:57.554376,1,1,probe,POSTDIG_FIX4_OFF,159,2026-03-12 13:06:58.028872,300.433147,0.057351,,,,,,keyboard,after digit#4,"{""note"":""after digit#4"",""pd_used"":0}",2,0.008333,120.000000,1
Sergio_G01_CNS-LLF5HT7Y0,cpeeg,offmed_offstim,20260312_130141,2026-03-12 13:01:57.554376,1,1,probe,DIGIT_RECALL_LINE_5,165,2026-03-12 13:06:58.085938,300.490498,4.542481,,5,,,,keyboard,next recall question,"{""value"":5,""note"":""next recall question"",""pd_used"":1}",2,0.008333,120.000000,1
Sergio_G01_CNS-LLF5HT7Y0,cpeeg,offmed_offstim,20260312_130141,2026-03-12 13:01:57.554376,1,1,probe,PROBE_DIGIT_OK_5,71,2026-03-12 13:07:02.901545,305.032979,0.363629,26.813145,slot#5,NaN,,,keyboard,probe_digit#5,"{""value"":""slot#5"",""entered"":null,""rt"":26.813145499909297,""note"":""probe_digit#5""}",2,0.008333,120.000000,1
Sergio_G01_CNS-LLF5HT7Y0,cpeeg,offmed_offstim,20260312_130141,2026-03-12 13:01:57.554376,1,1,probe,DIGIT5_OFF,150,2026-03-12 13:07:02.995793,305.396608,0.000000,,5,,,,keyboard,digit#5 off,"{""value"":5,""note"":""digit#5 off"",""pd_used"":0}",2,0.008333,120.000000,1
Sergio_G01_CNS-LLF5HT7Y0,cpeeg,offmed_offstim,20260312_130141,2026-03-12 13:01:57.554376,1,1,probe,POSTDIG_FIX5_ON,155,2026-03-12 13:07:02.996679,305.396608,3.332034,,,,,,keyboard,after digit#5,"{""note"":""after digit#5""}",2,0.008333,120.000000,1
Sergio_G01_CNS-LLF5HT7Y0,cpeeg,offmed_offstim,20260312_130141,2026-03-12 13:01:57.554376,1,1,probe,POSTDIG_FIX5_OFF,160,2026-03-12 13:07:06.326957,308.728642,0.051509,,,,,,keyboard,after digit#5,"{""note"":""after digit#5"",""pd_used"":0}",2,0.008333,120.000000,1
Sergio_G01_CNS-LLF5HT7Y0,cpeeg,offmed_offstim,20260312_130141,2026-03-12 13:01:57.554376,1,1,probe,PROBE_DONE,73,2026-03-12 13:07:06.334843,308.780151,0.001599,,,,,,keyboard,probe complete,"{""value"":"""",""note"":""probe complete""}",2,0.008333,120.000000,1
Sergio_G01_CNS-LLF5HT7Y0,cpeeg,offmed_offstim,20260312_130141,2026-03-12 13:01:57.554376,1,1,probe,TRIAL_END,21,2026-03-12 13:07:06.336300,308.781751,0.044968,,,,,,keyboard,,{},2,0.008333,120.000000,1
Sergio_G01_CNS-LLF5HT7Y0,cpeeg,offmed_offstim,20260312_130141,2026-03-12 13:01:57.554376,1,2,probe,TRIAL_CHANGE,22,2026-03-12 13:07:06.382107,308.826719,0.002809,,,,,,keyboard,trial transition,"{""note"":""trial transition""}",2,0.008333,120.000000,1
Sergio_G01_CNS-LLF5HT7Y0,cpeeg,offmed_offstim,20260312_130141,2026-03-12 13:01:57.554376,1,2,probe,TRIAL_START,20,2026-03-12 13:07:06.384465,308.829527,0.059053,,,,,,keyboard,,{},2,0.008333,120.000000,1
Sergio_G01_CNS-LLF5HT7Y0,cpeeg,offmed_offstim,20260312_130141,2026-03-12 13:01:57.554376,1,2,fix1,FIX1_ON,30,2026-03-12 13:07:06.487740,308.888581,3.365208,,,,,,keyboard,,"{""pd_used"":0}",2,0.008333,120.000000,1
Sergio_G01_CNS-LLF5HT7Y0,cpeeg,offmed_offstim,20260312_130141,2026-03-12 13:01:57.554376,1,2,fix1,FIX1_OFF,31,2026-03-12 13:07:09.853256,312.253789,0.055692,,,,,,keyboard,,"{""pd_used"":0}",2,0.008333,120.000000,1
Sergio_G01_CNS-LLF5HT7Y0,cpeeg,offmed_offstim,20260312_130141,2026-03-12 13:01:57.554376,1,2,digit,DIGIT1_ON,141,2026-03-12 13:07:09.908842,312.309480,0.555796,,7,,,,keyboard,digit#1 shown,"{""value"":7,""note"":""digit#1 shown"",""pd_used"":1}",2,0.008333,120.000000,1
Sergio_G01_CNS-LLF5HT7Y0,cpeeg,offmed_offstim,20260312_130141,2026-03-12 13:01:57.554376,1,2,digit,DIGIT1_OFF,146,2026-03-12 13:07:10.464700,312.865277,0.000000,,7,,,,keyboard,digit#1 off,"{""value"":7,""note"":""digit#1 off"",""pd_used"":0}",2,0.008333,120.000000,1
Sergio_G01_CNS-LLF5HT7Y0,cpeeg,offmed_offstim,20260312_130141,2026-03-12 13:01:57.554376,1,2,digit,POSTDIG_FIX1_ON,151,2026-03-12 13:07:10.467277,312.865277,1.802245,,,,,,keyboard,after digit#1,"{""note"":""after digit#1""}",2,0.008333,120.000000,1
Sergio_G01_CNS-LLF5HT7Y0,cpeeg,offmed_offstim,20260312_130141,2026-03-12 13:01:57.554376,1,2,digit,POSTDIG_FIX1_OFF,156,2026-03-12 13:07:12.267284,314.667521,0.056092,,,,,,keyboard,after digit#1,"{""note"":""after digit#1"",""pd_used"":0}",2,0.008333,120.000000,1
Sergio_G01_CNS-LLF5HT7Y0,cpeeg,offmed_offstim,20260312_130141,2026-03-12 13:01:57.554376,1,2,digit,DIGIT2_ON,142,2026-03-12 13:07:12.323244,314.723614,0.555837,,9,,,,keyboard,digit#2 shown,"{""value"":9,""note"":""digit#2 shown"",""pd_used"":1}",2,0.008333,120.000000,1
Sergio_G01_CNS-LLF5HT7Y0,cpeeg,offmed_offstim,20260312_130141,2026-03-12 13:01:57.554376,1,2,digit,DIGIT2_OFF,147,2026-03-12 13:07:12.878620,315.279451,0.000000,,9,,,,keyboard,digit#2 off,"{""value"":9,""note"":""digit#2 off"",""pd_used"":0}",2,0.008333,120.000000,1
Sergio_G01_CNS-LLF5HT7Y0,cpeeg,offmed_offstim,20260312_130141,2026-03-12 13:01:57.554376,1,2,digit,POSTDIG_FIX2_ON,152,2026-03-12 13:07:12.880969,315.279451,1.671764,,,,,,keyboard,after digit#2,"{""note"":""after digit#2""}",2,0.008333,120.000000,1
Sergio_G01_CNS-LLF5HT7Y0,cpeeg,offmed_offstim,20260312_130141,2026-03-12 13:01:57.554376,1,2,digit,POSTDIG_FIX2_OFF,157,2026-03-12 13:07:14.550151,316.951214,0.055489,,,,,,keyboard,after digit#2,"{""note"":""after digit#2"",""pd_used"":0}",2,0.008333,120.000000,1
Sergio_G01_CNS-LLF5HT7Y0,cpeeg,offmed_offstim,20260312_130141,2026-03-12 13:01:57.554376,1,2,digit,DIGIT3_ON,143,2026-03-12 13:07:14.604359,317.006703,0.553613,,3,,,,keyboard,digit#3 shown,"{""value"":3,""note"":""digit#3 shown"",""pd_used"":1}",2,0.008333,120.000000,1
Sergio_G01_CNS-LLF5HT7Y0,cpeeg,offmed_offstim,20260312_130141,2026-03-12 13:01:57.554376,1,2,digit,DIGIT3_OFF,148,2026-03-12 13:07:15.157494,317.560316,0.000000,,3,,,,keyboard,digit#3 off,"{""value"":3,""note"":""digit#3 off"",""pd_used"":0}",2,0.008333,120.000000,1
Sergio_G01_CNS-LLF5HT7Y0,cpeeg,offmed_offstim,20260312_130141,2026-03-12 13:01:57.554376,1,2,digit,POSTDIG_FIX3_ON,153,2026-03-12 13:07:15.158973,317.560316,1.820106,,,,,,keyboard,after digit#3,"{""note"":""after digit#3""}",2,0.008333,120.000000,1
Sergio_G01_CNS-LLF5HT7Y0,cpeeg,offmed_offstim,20260312_130141,2026-03-12 13:01:57.554376,1,2,digit,POSTDIG_FIX3_OFF,158,2026-03-12 13:07:16.979575,319.380422,0.055155,,,,,,keyboard,after digit#3,"{""note"":""after digit#3"",""pd_used"":0}",2,0.008333,120.000000,1
Sergio_G01_CNS-LLF5HT7Y0,cpeeg,offmed_offstim,20260312_130141,2026-03-12 13:01:57.554376,1,2,digit,DIGIT4_ON,144,2026-03-12 13:07:17.034880,319.435577,0.555600,,5,,,,keyboard,digit#4 shown,"{""value"":5,""note"":""digit#4 shown"",""pd_used"":1}",2,0.008333,120.000000,1
Sergio_G01_CNS-LLF5HT7Y0,cpeeg,offmed_offstim,20260312_130141,2026-03-12 13:01:57.554376,1,2,digit,DIGIT4_OFF,149,2026-03-12 13:07:17.590178,319.991177,0.000000,,5,,,,keyboard,digit#4 off,"{""value"":5,""note"":""digit#4 off"",""pd_used"":0}",2,0.008333,120.000000,1
Sergio_G01_CNS-LLF5HT7Y0,cpeeg,offmed_offstim,20260312_130141,2026-03-12 13:01:57.554376,1,2,digit,POSTDIG_FIX4_ON,154,2026-03-12 13:07:17.592586,319.991177,1.961200,,,,,,keyboard,after digit#4,"{""note"":""after digit#4""}",2,0.008333,120.000000,1
Sergio_G01_CNS-LLF5HT7Y0,cpeeg,offmed_offstim,20260312_130141,2026-03-12 13:01:57.554376,1,2,digit,POSTDIG_FIX4_OFF,159,2026-03-12 13:07:19.550478,321.952377,0.054035,,,,,,keyboard,after digit#4,"{""note"":""after digit#4"",""pd_used"":0}",2,0.008333,120.000000,1
Sergio_G01_CNS-LLF5HT7Y0,cpeeg,offmed_offstim,20260312_130141,2026-03-12 13:01:57.554376,1,2,digit,DIGIT5_ON,145,2026-03-12 13:07:19.605215,322.006412,0.555623,,0,,,,keyboard,digit#5 shown,"{""value"":0,""note"":""digit#5 shown"",""pd_used"":1}",2,0.008333,120.000000,1
Sergio_G01_CNS-LLF5HT7Y0,cpeeg,offmed_offstim,20260312_130141,2026-03-12 13:01:57.554376,1,2,digit,DIGIT5_OFF,150,2026-03-12 13:07:20.161250,322.562035,0.000000,,0,,,,keyboard,digit#5 off,"{""value"":0,""note"":""digit#5 off"",""pd_used"":0}",2,0.008333,120.000000,1
Sergio_G01_CNS-LLF5HT7Y0,cpeeg,offmed_offstim,20260312_130141,2026-03-12 13:01:57.554376,1,2,digit,POSTDIG_FIX5_ON,155,2026-03-12 13:07:20.163708,322.562035,3.057395,,,,,,keyboard,after digit#5,"{""note"":""after digit#5""}",2,0.008333,120.000000,1
Sergio_G01_CNS-LLF5HT7Y0,cpeeg,offmed_offstim,20260312_130141,2026-03-12 13:01:57.554376,1,2,digit,POSTDIG_FIX5_OFF,160,2026-03-12 13:07:23.218857,325.619429,0.055805,,,,,,keyboard,after digit#5,"{""note"":""after digit#5"",""pd_used"":0}",2,0.008333,120.000000,1
Sergio_G01_CNS-LLF5HT7Y0,cpeeg,offmed_offstim,20260312_130141,2026-03-12 13:01:57.554376,1,2,distractor,DISTRACTOR_ON,50,2026-03-12 13:07:23.274631,325.675234,20.035022,,7+4=13,,,,keyboard,,"{""value"":""7+4=13"",""isCorrectTruth"":false,""trueSum"":11,""pd_used"":1}",2,0.008333,120.000000,1
Sergio_G01_CNS-LLF5HT7Y0,cpeeg,offmed_offstim,20260312_130141,2026-03-12 13:01:57.554376,1,2,distractor,DISTRACTOR_OFF,52,2026-03-12 13:07:43.308699,345.710256,0.000000,,,,,,keyboard,,"{""pd_used"":0}",2,0.008333,120.000000,1
Sergio_G01_CNS-LLF5HT7Y0,cpeeg,offmed_offstim,20260312_130141,2026-03-12 13:01:57.554376,1,2,distractor,FIX2_ON,60,2026-03-12 13:07:43.311357,345.710256,3.442869,,,,,,keyboard,deadline reached,"{""note"":""deadline reached""}",2,0.008333,120.000000,1
Sergio_G01_CNS-LLF5HT7Y0,cpeeg,offmed_offstim,20260312_130141,2026-03-12 13:01:57.554376,1,2,fix2,FIX2_OFF,61,2026-03-12 13:07:46.752373,349.153125,0.055288,,,,,,keyboard,,"{""pd_used"":0}",2,0.008333,120.000000,1
Sergio_G01_CNS-LLF5HT7Y0,cpeeg,offmed_offstim,20260312_130141,2026-03-12 13:01:57.554376,1,2,probe,DIGIT_RECALL_LINE_1,161,2026-03-12 13:07:46.807196,349.208413,15.521373,,1,,,,keyboard,first recall question,"{""value"":1,""note"":""first recall question"",""pd_used"":1}",2,0.008333,120.000000,1
Sergio_G01_CNS-LLF5HT7Y0,cpeeg,offmed_offstim,20260312_130141,2026-03-12 13:01:57.554376,1,2,probe,PROBE_DIGIT_OK_1,71,2026-03-12 13:08:02.733892,364.729786,0.502540,15.529923,slot#1,NaN,,,keyboard,probe_digit#1,"{""value"":""slot#1"",""entered"":null,""rt"":15.529922800022177,""note"":""probe_digit#1""}",2,0.008333,120.000000,1
Sergio_G01_CNS-LLF5HT7Y0,cpeeg,offmed_offstim,20260312_130141,2026-03-12 13:01:57.554376,1,2,probe,DIGIT1_OFF,146,2026-03-12 13:08:02.831513,365.232326,0.000000,,0,,,,keyboard,digit#1 off,"{""value"":0,""note"":""digit#1 off"",""pd_used"":0}",2,0.008333,120.000000,1
Sergio_G01_CNS-LLF5HT7Y0,cpeeg,offmed_offstim,20260312_130141,2026-03-12 13:01:57.554376,1,2,probe,POSTDIG_FIX1_ON,151,2026-03-12 13:08:02.834059,365.232326,1.978415,,,,,,keyboard,after digit#1,"{""note"":""after digit#1""}",2,0.008333,120.000000,1
Sergio_G01_CNS-LLF5HT7Y0,cpeeg,offmed_offstim,20260312_130141,2026-03-12 13:01:57.554376,1,2,probe,POSTDIG_FIX1_OFF,156,2026-03-12 13:08:04.810313,367.210741,0.064738,,,,,,keyboard,after digit#1,"{""note"":""after digit#1"",""pd_used"":0}",2,0.008333,120.000000,1
Sergio_G01_CNS-LLF5HT7Y0,cpeeg,offmed_offstim,20260312_130141,2026-03-12 13:01:57.554376,1,2,probe,DIGIT_RECALL_LINE_2,162,2026-03-12 13:08:04.873998,367.275478,6.832521,,2,,,,keyboard,next recall question,"{""value"":2,""note"":""next recall question"",""pd_used"":1}",2,0.008333,120.000000,1
Sergio_G01_CNS-LLF5HT7Y0,cpeeg,offmed_offstim,20260312_130141,2026-03-12 13:01:57.554376,1,2,probe,PROBE_DIGIT_OK_2,71,2026-03-12 13:08:12.009885,374.107999,0.401390,24.908136,slot#2,NaN,,,keyboard,probe_digit#2,"{""value"":""slot#2"",""entered"":null,""rt"":24.908135500038043,""note"":""probe_digit#2""}",2,0.008333,120.000000,1
Sergio_G01_CNS-LLF5HT7Y0,cpeeg,offmed_offstim,20260312_130141,2026-03-12 13:01:57.554376,1,2,probe,DIGIT2_OFF,147,2026-03-12 13:08:12.107431,374.509389,0.000000,,0,,,,keyboard,digit#2 off,"{""value"":0,""note"":""digit#2 off"",""pd_used"":0}",2,0.008333,120.000000,1
Sergio_G01_CNS-LLF5HT7Y0,cpeeg,offmed_offstim,20260312_130141,2026-03-12 13:01:57.554376,1,2,probe,POSTDIG_FIX2_ON,152,2026-03-12 13:08:12.108384,374.509389,1.862063,,,,,,keyboard,after digit#2,"{""note"":""after digit#2""}",2,0.008333,120.000000,1
Sergio_G01_CNS-LLF5HT7Y0,cpeeg,offmed_offstim,20260312_130141,2026-03-12 13:01:57.554376,1,2,probe,POSTDIG_FIX2_OFF,157,2026-03-12 13:08:13.971100,376.371452,0.063388,,,,,,keyboard,after digit#2,"{""note"":""after digit#2"",""pd_used"":0}",2,0.008333,120.000000,1
Sergio_G01_CNS-LLF5HT7Y0,cpeeg,offmed_offstim,20260312_130141,2026-03-12 13:01:57.554376,1,2,probe,DIGIT_RECALL_LINE_3,163,2026-03-12 13:08:14.032957,376.434841,19.147836,,3,,,,keyboard,next recall question,"{""value"":3,""note"":""next recall question"",""pd_used"":1}",2,0.008333,120.000000,1
Sergio_G01_CNS-LLF5HT7Y0,cpeeg,offmed_offstim,20260312_130141,2026-03-12 13:01:57.554376,1,2,probe,PROBE_DIGIT_OK_3,71,2026-03-12 13:08:33.625222,395.582676,0.541423,46.382813,slot#3,NaN,,,keyboard,probe_digit#3,"{""value"":""slot#3"",""entered"":null,""rt"":46.382812800002284,""note"":""probe_digit#3""}",2,0.008333,120.000000,1
Sergio_G01_CNS-LLF5HT7Y0,cpeeg,offmed_offstim,20260312_130141,2026-03-12 13:01:57.554376,1,2,probe,DIGIT3_OFF,148,2026-03-12 13:08:33.724181,396.124099,0.000000,,0,,,,keyboard,digit#3 off,"{""value"":0,""note"":""digit#3 off"",""pd_used"":0}",2,0.008333,120.000000,1
Sergio_G01_CNS-LLF5HT7Y0,cpeeg,offmed_offstim,20260312_130141,2026-03-12 13:01:57.554376,1,2,probe,POSTDIG_FIX3_ON,153,2026-03-12 13:08:33.726652,396.124099,1.951959,,,,,,keyboard,after digit#3,"{""note"":""after digit#3""}",2,0.008333,120.000000,1
Sergio_G01_CNS-LLF5HT7Y0,cpeeg,offmed_offstim,20260312_130141,2026-03-12 13:01:57.554376,1,2,probe,POSTDIG_FIX3_OFF,158,2026-03-12 13:08:35.674228,398.076058,0.060567,,,,,,keyboard,after digit#3,"{""note"":""after digit#3"",""pd_used"":0}",2,0.008333,120.000000,1
Sergio_G01_CNS-LLF5HT7Y0,cpeeg,offmed_offstim,20260312_130141,2026-03-12 13:01:57.554376,1,2,probe,DIGIT_RECALL_LINE_4,164,2026-03-12 13:08:35.734917,398.136625,4.470801,,4,,,,keyboard,next recall question,"{""value"":4,""note"":""next recall question"",""pd_used"":1}",2,0.008333,120.000000,1
Sergio_G01_CNS-LLF5HT7Y0,cpeeg,offmed_offstim,20260312_130141,2026-03-12 13:01:57.554376,1,2,probe,PROBE_DIGIT_OK_4,71,2026-03-12 13:08:40.600196,402.607426,0.490700,53.407563,slot#4,NaN,,,keyboard,probe_digit#4,"{""value"":""slot#4"",""entered"":null,""rt"":53.407562799984589,""note"":""probe_digit#4""}",2,0.008333,120.000000,1
Sergio_G01_CNS-LLF5HT7Y0,cpeeg,offmed_offstim,20260312_130141,2026-03-12 13:01:57.554376,1,2,probe,DIGIT4_OFF,149,2026-03-12 13:08:40.698024,403.098126,0.000000,,0,,,,keyboard,digit#4 off,"{""value"":0,""note"":""digit#4 off"",""pd_used"":0}",2,0.008333,120.000000,1
Sergio_G01_CNS-LLF5HT7Y0,cpeeg,offmed_offstim,20260312_130141,2026-03-12 13:01:57.554376,1,2,probe,POSTDIG_FIX4_ON,154,2026-03-12 13:08:40.700248,403.098126,1.565417,,,,,,keyboard,after digit#4,"{""note"":""after digit#4""}",2,0.008333,120.000000,1
Sergio_G01_CNS-LLF5HT7Y0,cpeeg,offmed_offstim,20260312_130141,2026-03-12 13:01:57.554376,1,2,probe,POSTDIG_FIX4_OFF,159,2026-03-12 13:08:42.263424,404.663543,0.063182,,,,,,keyboard,after digit#4,"{""note"":""after digit#4"",""pd_used"":0}",2,0.008333,120.000000,1
Sergio_G01_CNS-LLF5HT7Y0,cpeeg,offmed_offstim,20260312_130141,2026-03-12 13:01:57.554376,1,2,probe,DIGIT_RECALL_LINE_5,165,2026-03-12 13:08:42.324947,404.726725,4.326903,,5,,,,keyboard,next recall question,"{""value"":5,""note"":""next recall question"",""pd_used"":1}",2,0.008333,120.000000,1
Sergio_G01_CNS-LLF5HT7Y0,cpeeg,offmed_offstim,20260312_130141,2026-03-12 13:01:57.554376,1,2,probe,PROBE_DIGIT_OK_5,71,2026-03-12 13:08:46.950137,409.053628,0.394985,59.853765,slot#5,NaN,,,keyboard,probe_digit#5,"{""value"":""slot#5"",""entered"":null,""rt"":59.85376460000407,""note"":""probe_digit#5""}",2,0.008333,120.000000,1
Sergio_G01_CNS-LLF5HT7Y0,cpeeg,offmed_offstim,20260312_130141,2026-03-12 13:01:57.554376,1,2,probe,DIGIT5_OFF,150,2026-03-12 13:08:47.048245,409.448613,0.000000,,0,,,,keyboard,digit#5 off,"{""value"":0,""note"":""digit#5 off"",""pd_used"":0}",2,0.008333,120.000000,1
Sergio_G01_CNS-LLF5HT7Y0,cpeeg,offmed_offstim,20260312_130141,2026-03-12 13:01:57.554376,1,2,probe,POSTDIG_FIX5_ON,155,2026-03-12 13:08:47.050659,409.448613,3.208850,,,,,,keyboard,after digit#5,"{""note"":""after digit#5""}",2,0.008333,120.000000,1
Sergio_G01_CNS-LLF5HT7Y0,cpeeg,offmed_offstim,20260312_130141,2026-03-12 13:01:57.554376,1,2,probe,POSTDIG_FIX5_OFF,160,2026-03-12 13:08:50.256851,412.657463,0.052729,,,,,,keyboard,after digit#5,"{""note"":""after digit#5"",""pd_used"":0}",2,0.008333,120.000000,1
Sergio_G01_CNS-LLF5HT7Y0,cpeeg,offmed_offstim,20260312_130141,2026-03-12 13:01:57.554376,1,2,probe,PROBE_DONE,73,2026-03-12 13:08:50.264880,412.710192,0.001530,,,,,,keyboard,probe complete,"{""value"":"""",""note"":""probe complete""}",2,0.008333,120.000000,1
Sergio_G01_CNS-LLF5HT7Y0,cpeeg,offmed_offstim,20260312_130141,2026-03-12 13:01:57.554376,1,2,probe,TRIAL_END,21,2026-03-12 13:08:50.266487,412.711722,0.044650,,,,,,keyboard,,{},2,0.008333,120.000000,1
Sergio_G01_CNS-LLF5HT7Y0,cpeeg,offmed_offstim,20260312_130141,2026-03-12 13:01:57.554376,1,3,probe,TRIAL_CHANGE,22,2026-03-12 13:08:50.311960,412.756372,0.003012,,,,,,keyboard,trial transition,"{""note"":""trial transition""}",2,0.008333,120.000000,1
Sergio_G01_CNS-LLF5HT7Y0,cpeeg,offmed_offstim,20260312_130141,2026-03-12 13:01:57.554376,1,3,probe,TRIAL_START,20,2026-03-12 13:08:50.314376,412.759384,0.058506,,,,,,keyboard,,{},2,0.008333,120.000000,1
Sergio_G01_CNS-LLF5HT7Y0,cpeeg,offmed_offstim,20260312_130141,2026-03-12 13:01:57.554376,1,3,fix1,FIX1_ON,30,2026-03-12 13:08:50.417567,412.817890,3.113393,,,,,,keyboard,,"{""pd_used"":0}",2,0.008333,120.000000,1
Sergio_G01_CNS-LLF5HT7Y0,cpeeg,offmed_offstim,20260312_130141,2026-03-12 13:01:57.554376,1,3,fix1,FIX1_OFF,31,2026-03-12 13:08:53.530619,415.931282,0.055592,,,,,,keyboard,,"{""pd_used"":0}",2,0.008333,120.000000,1
Sergio_G01_CNS-LLF5HT7Y0,cpeeg,offmed_offstim,20260312_130141,2026-03-12 13:01:57.554376,1,3,digit,DIGIT1_ON,141,2026-03-12 13:08:53.585855,415.986874,0.555286,,1,,,,keyboard,digit#1 shown,"{""value"":1,""note"":""digit#1 shown"",""pd_used"":1}",2,0.008333,120.000000,1
Sergio_G01_CNS-LLF5HT7Y0,cpeeg,offmed_offstim,20260312_130141,2026-03-12 13:01:57.554376,1,3,digit,DIGIT1_OFF,146,2026-03-12 13:08:54.141056,416.542160,0.000000,,1,,,,keyboard,digit#1 off,"{""value"":1,""note"":""digit#1 off"",""pd_used"":0}",2,0.008333,120.000000,1
Sergio_G01_CNS-LLF5HT7Y0,cpeeg,offmed_offstim,20260312_130141,2026-03-12 13:01:57.554376,1,3,digit,POSTDIG_FIX1_ON,151,2026-03-12 13:08:54.143465,416.542160,1.921391,,,,,,keyboard,after digit#1,"{""note"":""after digit#1""}",2,0.008333,120.000000,1
Sergio_G01_CNS-LLF5HT7Y0,cpeeg,offmed_offstim,20260312_130141,2026-03-12 13:01:57.554376,1,3,digit,POSTDIG_FIX1_OFF,156,2026-03-12 13:08:56.062240,418.463551,0.055699,,,,,,keyboard,after digit#1,"{""note"":""after digit#1"",""pd_used"":0}",2,0.008333,120.000000,1
Sergio_G01_CNS-LLF5HT7Y0,cpeeg,offmed_offstim,20260312_130141,2026-03-12 13:01:57.554376,1,3,digit,DIGIT2_ON,142,2026-03-12 13:08:56.118041,418.519250,0.555973,,9,,,,keyboard,digit#2 shown,"{""value"":9,""note"":""digit#2 shown"",""pd_used"":1}",2,0.008333,120.000000,1
Sergio_G01_CNS-LLF5HT7Y0,cpeeg,offmed_offstim,20260312_130141,2026-03-12 13:01:57.554376,1,3,digit,DIGIT2_OFF,147,2026-03-12 13:08:56.674423,419.075223,0.000000,,9,,,,keyboard,digit#2 off,"{""value"":9,""note"":""digit#2 off"",""pd_used"":0}",2,0.008333,120.000000,1
Sergio_G01_CNS-LLF5HT7Y0,cpeeg,offmed_offstim,20260312_130141,2026-03-12 13:01:57.554376,1,3,digit,POSTDIG_FIX2_ON,152,2026-03-12 13:08:56.676918,419.075223,1.956532,,,,,,keyboard,after digit#2,"{""note"":""after digit#2""}",2,0.008333,120.000000,1
Sergio_G01_CNS-LLF5HT7Y0,cpeeg,offmed_offstim,20260312_130141,2026-03-12 13:01:57.554376,1,3,digit,POSTDIG_FIX2_OFF,157,2026-03-12 13:08:58.630076,421.031755,0.054280,,,,,,keyboard,after digit#2,"{""note"":""after digit#2"",""pd_used"":0}",2,0.008333,120.000000,1
Sergio_G01_CNS-LLF5HT7Y0,cpeeg,offmed_offstim,20260312_130141,2026-03-12 13:01:57.554376,1,3,digit,DIGIT3_ON,143,2026-03-12 13:08:58.683685,421.086035,0.553834,,5,,,,keyboard,digit#3 shown,"{""value"":5,""note"":""digit#3 shown"",""pd_used"":1}",2,0.008333,120.000000,1
Sergio_G01_CNS-LLF5HT7Y0,cpeeg,offmed_offstim,20260312_130141,2026-03-12 13:01:57.554376,1,3,digit,DIGIT3_OFF,148,2026-03-12 13:08:59.238939,421.639869,0.000000,,5,,,,keyboard,digit#3 off,"{""value"":5,""note"":""digit#3 off"",""pd_used"":0}",2,0.008333,120.000000,1
Sergio_G01_CNS-LLF5HT7Y0,cpeeg,offmed_offstim,20260312_130141,2026-03-12 13:01:57.554376,1,3,digit,POSTDIG_FIX3_ON,153,2026-03-12 13:08:59.241218,421.639869,1.586761,,,,,,keyboard,after digit#3,"{""note"":""after digit#3""}",2,0.008333,120.000000,1
Sergio_G01_CNS-LLF5HT7Y0,cpeeg,offmed_offstim,20260312_130141,2026-03-12 13:01:57.554376,1,3,digit,POSTDIG_FIX3_OFF,158,2026-03-12 13:09:00.825890,423.226631,0.055660,,,,,,keyboard,after digit#3,"{""note"":""after digit#3"",""pd_used"":0}",2,0.008333,120.000000,1
Sergio_G01_CNS-LLF5HT7Y0,cpeeg,offmed_offstim,20260312_130141,2026-03-12 13:01:57.554376,1,3,digit,DIGIT4_ON,144,2026-03-12 13:09:00.881344,423.282291,0.556162,,4,,,,keyboard,digit#4 shown,"{""value"":4,""note"":""digit#4 shown"",""pd_used"":1}",2,0.008333,120.000000,1
Sergio_G01_CNS-LLF5HT7Y0,cpeeg,offmed_offstim,20260312_130141,2026-03-12 13:01:57.554376,1,3,digit,DIGIT4_OFF,149,2026-03-12 13:09:01.436950,423.838453,0.000000,,4,,,,keyboard,digit#4 off,"{""value"":4,""note"":""digit#4 off"",""pd_used"":0}",2,0.008333,120.000000,1
Sergio_G01_CNS-LLF5HT7Y0,cpeeg,offmed_offstim,20260312_130141,2026-03-12 13:01:57.554376,1,3,digit,POSTDIG_FIX4_ON,154,2026-03-12 13:09:01.439270,423.838453,1.862086,,,,,,keyboard,after digit#4,"{""note"":""after digit#4""}",2,0.008333,120.000000,1
Sergio_G01_CNS-LLF5HT7Y0,cpeeg,offmed_offstim,20260312_130141,2026-03-12 13:01:57.554376,1,3,digit,POSTDIG_FIX4_OFF,159,2026-03-12 13:09:03.299607,425.700538,0.055361,,,,,,keyboard,after digit#4,"{""note"":""after digit#4"",""pd_used"":0}",2,0.008333,120.000000,1
Sergio_G01_CNS-LLF5HT7Y0,cpeeg,offmed_offstim,20260312_130141,2026-03-12 13:01:57.554376,1,3,digit,DIGIT5_ON,145,2026-03-12 13:09:03.354420,425.755899,0.555428,,2,,,,keyboard,digit#5 shown,"{""value"":2,""note"":""digit#5 shown"",""pd_used"":1}",2,0.008333,120.000000,1
Sergio_G01_CNS-LLF5HT7Y0,cpeeg,offmed_offstim,20260312_130141,2026-03-12 13:01:57.554376,1,3,digit,DIGIT5_OFF,150,2026-03-12 13:09:03.910909,426.311327,0.000000,,2,,,,keyboard,digit#5 off,"{""value"":2,""note"":""digit#5 off"",""pd_used"":0}",2,0.008333,120.000000,1
Sergio_G01_CNS-LLF5HT7Y0,cpeeg,offmed_offstim,20260312_130141,2026-03-12 13:01:57.554376,1,3,digit,POSTDIG_FIX5_ON,155,2026-03-12 13:09:03.913428,426.311327,3.245313,,,,,,keyboard,after digit#5,"{""note"":""after digit#5""}",2,0.008333,120.000000,1
Sergio_G01_CNS-LLF5HT7Y0,cpeeg,offmed_offstim,20260312_130141,2026-03-12 13:01:57.554376,1,3,digit,POSTDIG_FIX5_OFF,160,2026-03-12 13:09:07.156204,429.556640,0.056038,,,,,,keyboard,after digit#5,"{""note"":""after digit#5"",""pd_used"":0}",2,0.008333,120.000000,1
Sergio_G01_CNS-LLF5HT7Y0,cpeeg,offmed_offstim,20260312_130141,2026-03-12 13:01:57.554376,1,3,distractor,DISTRACTOR_ON,50,2026-03-12 13:09:07.212287,429.612679,16.552481,,5+5=7,,,,keyboard,,"{""value"":""5+5=7"",""isCorrectTruth"":false,""trueSum"":10,""pd_used"":1}",2,0.008333,120.000000,1
Sergio_G01_CNS-LLF5HT7Y0,cpeeg,offmed_offstim,20260312_130141,2026-03-12 13:01:57.554376,1,3,distractor,DISTRACTOR_ANS,51,2026-03-12 13:09:24.136013,446.165160,0.000000,16.552481,5+5=7,F,1,,keyboard,key= (False),"{""value"":""5+5=7"",""entered"":""F"",""rt"":16.552481400081888,""correct"":1,""note"":""key= (False)"",""truth"":false,""trueSum"":10,""shownSum"":7,""a"":5,""b"":5}",2,0.008333,120.000000,1
Sergio_G01_CNS-LLF5HT7Y0,cpeeg,offmed_offstim,20260312_130141,2026-03-12 13:01:57.554376,1,3,distractor,ANS_CORRECT,100,2026-03-12 13:09:24.182961,446.165160,0.473069,,,,,,keyboard,,{},2,0.008333,120.000000,1
Sergio_G01_CNS-LLF5HT7Y0,cpeeg,offmed_offstim,20260312_130141,2026-03-12 13:01:57.554376,1,3,distractor,DISTRACTOR_OFF,52,2026-03-12 13:09:24.237853,446.638230,0.000000,,,,,,keyboard,,"{""pd_used"":0}",2,0.008333,120.000000,1
Sergio_G01_CNS-LLF5HT7Y0,cpeeg,offmed_offstim,20260312_130141,2026-03-12 13:01:57.554376,1,3,distractor,FIX2_ON,60,2026-03-12 13:09:24.239914,446.638230,3.391225,,,,,,keyboard,immediate after response,"{""note"":""immediate after response""}",2,0.008333,120.000000,1
Sergio_G01_CNS-LLF5HT7Y0,cpeeg,offmed_offstim,20260312_130141,2026-03-12 13:01:57.554376,1,3,fix2,FIX2_OFF,61,2026-03-12 13:09:27.629593,450.029455,0.056174,,,,,,keyboard,,"{""pd_used"":0}",2,0.008333,120.000000,1
Sergio_G01_CNS-LLF5HT7Y0,cpeeg,offmed_offstim,20260312_130141,2026-03-12 13:01:57.554376,1,3,probe,DIGIT_RECALL_LINE_1,161,2026-03-12 13:09:27.683482,450.085628,3.360929,,1,,,,keyboard,first recall question,"{""value"":1,""note"":""first recall question"",""pd_used"":1}",2,0.008333,120.000000,1
Sergio_G01_CNS-LLF5HT7Y0,cpeeg,offmed_offstim,20260312_130141,2026-03-12 13:01:57.554376,1,3,probe,PROBE_DIGIT_OK_1,71,2026-03-12 13:09:31.630515,453.446557,0.682330,3.369592,slot#1,NaN,,,keyboard,probe_digit#1,"{""value"":""slot#1"",""entered"":null,""rt"":3.3695922000333667,""note"":""probe_digit#1""}",2,0.008333,120.000000,1
Sergio_G01_CNS-LLF5HT7Y0,cpeeg,offmed_offstim,20260312_130141,2026-03-12 13:01:57.554376,1,3,probe,DIGIT1_OFF,146,2026-03-12 13:09:31.730156,454.128887,0.000000,,2,,,,keyboard,digit#1 off,"{""value"":2,""note"":""digit#1 off"",""pd_used"":0}",2,0.008333,120.000000,1
Sergio_G01_CNS-LLF5HT7Y0,cpeeg,offmed_offstim,20260312_130141,2026-03-12 13:01:57.554376,1,3,probe,POSTDIG_FIX1_ON,151,2026-03-12 13:09:31.732384,454.128887,1.916198,,,,,,keyboard,after digit#1,"{""note"":""after digit#1""}",2,0.008333,120.000000,1
Sergio_G01_CNS-LLF5HT7Y0,cpeeg,offmed_offstim,20260312_130141,2026-03-12 13:01:57.554376,1,3,probe,POSTDIG_FIX1_OFF,156,2026-03-12 13:09:33.645793,456.045085,0.064123,,,,,,keyboard,after digit#1,"{""note"":""after digit#1"",""pd_used"":0}",2,0.008333,120.000000,1
Sergio_G01_CNS-LLF5HT7Y0,cpeeg,offmed_offstim,20260312_130141,2026-03-12 13:01:57.554376,1,3,probe,DIGIT_RECALL_LINE_2,162,2026-03-12 13:09:33.707648,456.109208,32.590807,,2,,,,keyboard,next recall question,"{""value"":2,""note"":""next recall question"",""pd_used"":1}",2,0.008333,120.000000,1
Sergio_G01_CNS-LLF5HT7Y0,cpeeg,offmed_offstim,20260312_130141,2026-03-12 13:01:57.554376,1,3,probe,PROBE_DIGIT_OK_2,71,2026-03-12 13:10:06.590925,488.700016,0.386910,38.623051,slot#2,NaN,,,keyboard,probe_digit#2,"{""value"":""slot#2"",""entered"":null,""rt"":38.623050500056706,""note"":""probe_digit#2""}",2,0.008333,120.000000,1
Sergio_G01_CNS-LLF5HT7Y0,cpeeg,offmed_offstim,20260312_130141,2026-03-12 13:01:57.554376,1,3,probe,DIGIT2_OFF,147,2026-03-12 13:10:06.685777,489.086925,0.000000,,2,,,,keyboard,digit#2 off,"{""value"":2,""note"":""digit#2 off"",""pd_used"":0}",2,0.008333,120.000000,1
Sergio_G01_CNS-LLF5HT7Y0,cpeeg,offmed_offstim,20260312_130141,2026-03-12 13:01:57.554376,1,3,probe,POSTDIG_FIX2_ON,152,2026-03-12 13:10:06.686638,489.086925,1.923213,,,,,,keyboard,after digit#2,"{""note"":""after digit#2""}",2,0.008333,120.000000,1
Sergio_G01_CNS-LLF5HT7Y0,cpeeg,offmed_offstim,20260312_130141,2026-03-12 13:01:57.554376,1,3,probe,POSTDIG_FIX2_OFF,157,2026-03-12 13:10:08.607096,491.010139,0.058426,,,,,,keyboard,after digit#2,"{""note"":""after digit#2"",""pd_used"":0}",2,0.008333,120.000000,1
Sergio_G01_CNS-LLF5HT7Y0,cpeeg,offmed_offstim,20260312_130141,2026-03-12 13:01:57.554376,1,3,probe,DIGIT_RECALL_LINE_3,163,2026-03-12 13:10:08.665902,491.068564,0.676466,,3,,,,keyboard,next recall question,"{""value"":3,""note"":""next recall question"",""pd_used"":1}",2,0.008333,120.000000,1
Sergio_G01_CNS-LLF5HT7Y0,cpeeg,offmed_offstim,20260312_130141,2026-03-12 13:01:57.554376,1,3,probe,PROBE_DIGIT_OK_3,71,2026-03-12 13:10:10.042787,491.745031,0.793849,41.668066,slot#3,NaN,,,keyboard,probe_digit#3,"{""value"":""slot#3"",""entered"":null,""rt"":41.668065600097179,""note"":""probe_digit#3""}",2,0.008333,120.000000,1
Sergio_G01_CNS-LLF5HT7Y0,cpeeg,offmed_offstim,20260312_130141,2026-03-12 13:01:57.554376,1,3,probe,DIGIT3_OFF,148,2026-03-12 13:10:10.136851,492.538880,0.000000,,2,,,,keyboard,digit#3 off,"{""value"":2,""note"":""digit#3 off"",""pd_used"":0}",2,0.008333,120.000000,1
Sergio_G01_CNS-LLF5HT7Y0,cpeeg,offmed_offstim,20260312_130141,2026-03-12 13:01:57.554376,1,3,probe,POSTDIG_FIX3_ON,153,2026-03-12 13:10:10.137766,492.538880,1.585946,,,,,,keyboard,after digit#3,"{""note"":""after digit#3""}",2,0.008333,120.000000,1
Sergio_G01_CNS-LLF5HT7Y0,cpeeg,offmed_offstim,20260312_130141,2026-03-12 13:01:57.554376,1,3,probe,POSTDIG_FIX3_OFF,158,2026-03-12 13:10:11.722368,494.124826,0.059190,,,,,,keyboard,after digit#3,"{""note"":""after digit#3"",""pd_used"":0}",2,0.008333,120.000000,1
Sergio_G01_CNS-LLF5HT7Y0,cpeeg,offmed_offstim,20260312_130141,2026-03-12 13:01:57.554376,1,3,probe,DIGIT_RECALL_LINE_4,164,2026-03-12 13:10:11.779541,494.184015,0.828005,,4,,,,keyboard,next recall question,"{""value"":4,""note"":""next recall question"",""pd_used"":1}",2,0.008333,120.000000,1
Sergio_G01_CNS-LLF5HT7Y0,cpeeg,offmed_offstim,20260312_130141,2026-03-12 13:01:57.554376,1,3,probe,PROBE_DIGIT_OK_4,71,2026-03-12 13:10:13.018075,495.012020,0.503440,44.935055,slot#4,NaN,,,keyboard,probe_digit#4,"{""value"":""slot#4"",""entered"":null,""rt"":44.935055000009015,""note"":""probe_digit#4""}",2,0.008333,120.000000,1
Sergio_G01_CNS-LLF5HT7Y0,cpeeg,offmed_offstim,20260312_130141,2026-03-12 13:01:57.554376,1,3,probe,DIGIT4_OFF,149,2026-03-12 13:10:13.115251,495.515460,0.000000,,2,,,,keyboard,digit#4 off,"{""value"":2,""note"":""digit#4 off"",""pd_used"":0}",2,0.008333,120.000000,1
Sergio_G01_CNS-LLF5HT7Y0,cpeeg,offmed_offstim,20260312_130141,2026-03-12 13:01:57.554376,1,3,probe,POSTDIG_FIX4_ON,154,2026-03-12 13:10:13.117111,495.515460,1.784089,,,,,,keyboard,after digit#4,"{""note"":""after digit#4""}",2,0.008333,120.000000,1
Sergio_G01_CNS-LLF5HT7Y0,cpeeg,offmed_offstim,20260312_130141,2026-03-12 13:01:57.554376,1,3,probe,POSTDIG_FIX4_OFF,159,2026-03-12 13:10:14.895880,497.299549,0.058235,,,,,,keyboard,after digit#4,"{""note"":""after digit#4"",""pd_used"":0}",2,0.008333,120.000000,1
Sergio_G01_CNS-LLF5HT7Y0,cpeeg,offmed_offstim,20260312_130141,2026-03-12 13:01:57.554376,1,3,probe,DIGIT_RECALL_LINE_5,165,2026-03-12 13:10:14.954578,497.357785,1.437034,,5,,,,keyboard,next recall question,"{""value"":5,""note"":""next recall question"",""pd_used"":1}",2,0.008333,120.000000,1
Sergio_G01_CNS-LLF5HT7Y0,cpeeg,offmed_offstim,20260312_130141,2026-03-12 13:01:57.554376,1,3,probe,PROBE_DIGIT_OK_5,71,2026-03-12 13:10:16.811623,498.794818,0.513483,48.717853,slot#5,NaN,,,keyboard,probe_digit#5,"{""value"":""slot#5"",""entered"":null,""rt"":48.717853400041349,""note"":""probe_digit#5""}",2,0.008333,120.000000,1
Sergio_G01_CNS-LLF5HT7Y0,cpeeg,offmed_offstim,20260312_130141,2026-03-12 13:01:57.554376,1,3,probe,DIGIT5_OFF,150,2026-03-12 13:10:16.905949,499.308302,0.000000,,2,,,,keyboard,digit#5 off,"{""value"":2,""note"":""digit#5 off"",""pd_used"":0}",2,0.008333,120.000000,1
Sergio_G01_CNS-LLF5HT7Y0,cpeeg,offmed_offstim,20260312_130141,2026-03-12 13:01:57.554376,1,3,probe,POSTDIG_FIX5_ON,155,2026-03-12 13:10:16.906696,499.308302,3.128066,,,,,,keyboard,after digit#5,"{""note"":""after digit#5""}",2,0.008333,120.000000,1
Sergio_G01_CNS-LLF5HT7Y0,cpeeg,offmed_offstim,20260312_130141,2026-03-12 13:01:57.554376,1,3,probe,POSTDIG_FIX5_OFF,160,2026-03-12 13:10:20.035112,502.436367,0.052057,,,,,,keyboard,after digit#5,"{""note"":""after digit#5"",""pd_used"":0}",2,0.008333,120.000000,1
Sergio_G01_CNS-LLF5HT7Y0,cpeeg,offmed_offstim,20260312_130141,2026-03-12 13:01:57.554376,1,3,probe,PROBE_DONE,73,2026-03-12 13:10:20.043468,502.488424,0.002135,,,,,,keyboard,probe complete,"{""value"":"""",""note"":""probe complete""}",2,0.008333,120.000000,1
Sergio_G01_CNS-LLF5HT7Y0,cpeeg,offmed_offstim,20260312_130141,2026-03-12 13:01:57.554376,1,3,probe,TRIAL_END,21,2026-03-12 13:10:20.045384,502.490559,0.044565,,,,,,keyboard,,{},2,0.008333,120.000000,1
Sergio_G01_CNS-LLF5HT7Y0,cpeeg,offmed_offstim,20260312_130141,2026-03-12 13:01:57.554376,1,4,probe,TRIAL_CHANGE,22,2026-03-12 13:10:20.089997,502.535124,0.001986,,,,,,keyboard,trial transition,"{""note"":""trial transition""}",2,0.008333,120.000000,1
Sergio_G01_CNS-LLF5HT7Y0,cpeeg,offmed_offstim,20260312_130141,2026-03-12 13:01:57.554376,1,4,probe,TRIAL_START,20,2026-03-12 13:10:20.091931,502.537111,0.059117,,,,,,keyboard,,{},2,0.008333,120.000000,1
Sergio_G01_CNS-LLF5HT7Y0,cpeeg,offmed_offstim,20260312_130141,2026-03-12 13:01:57.554376,1,4,fix1,FIX1_ON,30,2026-03-12 13:10:20.194582,502.596228,3.334343,,,,,,keyboard,,"{""pd_used"":0}",2,0.008333,120.000000,1
Sergio_G01_CNS-LLF5HT7Y0,cpeeg,offmed_offstim,20260312_130141,2026-03-12 13:01:57.554376,1,4,fix1,FIX1_OFF,31,2026-03-12 13:10:23.528576,505.930570,0.053589,,,,,,keyboard,,"{""pd_used"":0}",2,0.008333,120.000000,1
Sergio_G01_CNS-LLF5HT7Y0,cpeeg,offmed_offstim,20260312_130141,2026-03-12 13:01:57.554376,1,4,digit,DIGIT1_ON,141,2026-03-12 13:10:23.581350,505.984159,0.553225,,4,,,,keyboard,digit#1 shown,"{""value"":4,""note"":""digit#1 shown"",""pd_used"":1}",2,0.008333,120.000000,1
Sergio_G01_CNS-LLF5HT7Y0,cpeeg,offmed_offstim,20260312_130141,2026-03-12 13:01:57.554376,1,4,digit,DIGIT1_OFF,146,2026-03-12 13:10:24.134894,506.537384,0.000000,,4,,,,keyboard,digit#1 off,"{""value"":4,""note"":""digit#1 off"",""pd_used"":0}",2,0.008333,120.000000,1
Sergio_G01_CNS-LLF5HT7Y0,cpeeg,offmed_offstim,20260312_130141,2026-03-12 13:01:57.554376,1,4,digit,POSTDIG_FIX1_ON,151,2026-03-12 13:10:24.135737,506.537384,2.013043,,,,,,keyboard,after digit#1,"{""note"":""after digit#1""}",2,0.008333,120.000000,1
Sergio_G01_CNS-LLF5HT7Y0,cpeeg,offmed_offstim,20260312_130141,2026-03-12 13:01:57.554376,1,4,digit,POSTDIG_FIX1_OFF,156,2026-03-12 13:10:26.148303,508.550427,0.054105,,,,,,keyboard,after digit#1,"{""note"":""after digit#1"",""pd_used"":0}",2,0.008333,120.000000,1
Sergio_G01_CNS-LLF5HT7Y0,cpeeg,offmed_offstim,20260312_130141,2026-03-12 13:01:57.554376,1,4,digit,DIGIT2_ON,142,2026-03-12 13:10:26.200939,508.604532,0.552000,,2,,,,keyboard,digit#2 shown,"{""value"":2,""note"":""digit#2 shown"",""pd_used"":1}",2,0.008333,120.000000,1
Sergio_G01_CNS-LLF5HT7Y0,cpeeg,offmed_offstim,20260312_130141,2026-03-12 13:01:57.554376,1,4,digit,DIGIT2_OFF,147,2026-03-12 13:10:26.752608,509.156532,0.000000,,2,,,,keyboard,digit#2 off,"{""value"":2,""note"":""digit#2 off"",""pd_used"":0}",2,0.008333,120.000000,1
Sergio_G01_CNS-LLF5HT7Y0,cpeeg,offmed_offstim,20260312_130141,2026-03-12 13:01:57.554376,1,4,digit,POSTDIG_FIX2_ON,152,2026-03-12 13:10:26.753565,509.156532,1.887788,,,,,,keyboard,after digit#2,"{""note"":""after digit#2""}",2,0.008333,120.000000,1
Sergio_G01_CNS-LLF5HT7Y0,cpeeg,offmed_offstim,20260312_130141,2026-03-12 13:01:57.554376,1,4,digit,POSTDIG_FIX2_OFF,157,2026-03-12 13:10:28.641064,511.044320,0.051345,,,,,,keyboard,after digit#2,"{""note"":""after digit#2"",""pd_used"":0}",2,0.008333,120.000000,1
Sergio_G01_CNS-LLF5HT7Y0,cpeeg,offmed_offstim,20260312_130141,2026-03-12 13:01:57.554376,1,4,digit,DIGIT3_ON,143,2026-03-12 13:10:28.692206,511.095665,0.551291,,8,,,,keyboard,digit#3 shown,"{""value"":8,""note"":""digit#3 shown"",""pd_used"":1}",2,0.008333,120.000000,1
Sergio_G01_CNS-LLF5HT7Y0,cpeeg,offmed_offstim,20260312_130141,2026-03-12 13:01:57.554376,1,4,digit,DIGIT3_OFF,148,2026-03-12 13:10:29.243229,511.646957,0.000000,,8,,,,keyboard,digit#3 off,"{""value"":8,""note"":""digit#3 off"",""pd_used"":0}",2,0.008333,120.000000,1
Sergio_G01_CNS-LLF5HT7Y0,cpeeg,offmed_offstim,20260312_130141,2026-03-12 13:01:57.554376,1,4,digit,POSTDIG_FIX3_ON,153,2026-03-12 13:10:29.244487,511.646957,1.617197,,,,,,keyboard,after digit#3,"{""note"":""after digit#3""}",2,0.008333,120.000000,1
Sergio_G01_CNS-LLF5HT7Y0,cpeeg,offmed_offstim,20260312_130141,2026-03-12 13:01:57.554376,1,4,digit,POSTDIG_FIX3_OFF,158,2026-03-12 13:10:30.861042,513.264154,0.051493,,,,,,keyboard,after digit#3,"{""note"":""after digit#3"",""pd_used"":0}",2,0.008333,120.000000,1
Sergio_G01_CNS-LLF5HT7Y0,cpeeg,offmed_offstim,20260312_130141,2026-03-12 13:01:57.554376,1,4,digit,DIGIT4_ON,144,2026-03-12 13:10:30.912032,513.315647,0.551281,,0,,,,keyboard,digit#4 shown,"{""value"":0,""note"":""digit#4 shown"",""pd_used"":1}",2,0.008333,120.000000,1
Sergio_G01_CNS-LLF5HT7Y0,cpeeg,offmed_offstim,20260312_130141,2026-03-12 13:01:57.554376,1,4,digit,DIGIT4_OFF,149,2026-03-12 13:10:31.463248,513.866928,0.000000,,0,,,,keyboard,digit#4 off,"{""value"":0,""note"":""digit#4 off"",""pd_used"":0}",2,0.008333,120.000000,1
Sergio_G01_CNS-LLF5HT7Y0,cpeeg,offmed_offstim,20260312_130141,2026-03-12 13:01:57.554376,1,4,digit,POSTDIG_FIX4_ON,154,2026-03-12 13:10:31.464097,513.866928,1.866042,,,,,,keyboard,after digit#4,"{""note"":""after digit#4""}",2,0.008333,120.000000,1
Sergio_G01_CNS-LLF5HT7Y0,cpeeg,offmed_offstim,20260312_130141,2026-03-12 13:01:57.554376,1,4,digit,POSTDIG_FIX4_OFF,159,2026-03-12 13:10:33.329513,515.732970,0.051188,,,,,,keyboard,after digit#4,"{""note"":""after digit#4"",""pd_used"":0}",2,0.008333,120.000000,1
Sergio_G01_CNS-LLF5HT7Y0,cpeeg,offmed_offstim,20260312_130141,2026-03-12 13:01:57.554376,1,4,digit,DIGIT5_ON,145,2026-03-12 13:10:33.381164,515.784157,0.552691,,5,,,,keyboard,digit#5 shown,"{""value"":5,""note"":""digit#5 shown"",""pd_used"":1}",2,0.008333,120.000000,1
Sergio_G01_CNS-LLF5HT7Y0,cpeeg,offmed_offstim,20260312_130141,2026-03-12 13:01:57.554376,1,4,digit,DIGIT5_OFF,150,2026-03-12 13:10:33.933663,516.336848,0.000000,,5,,,,keyboard,digit#5 off,"{""value"":5,""note"":""digit#5 off"",""pd_used"":0}",2,0.008333,120.000000,1
Sergio_G01_CNS-LLF5HT7Y0,cpeeg,offmed_offstim,20260312_130141,2026-03-12 13:01:57.554376,1,4,digit,POSTDIG_FIX5_ON,155,2026-03-12 13:10:33.935035,516.336848,3.219354,,,,,,keyboard,after digit#5,"{""note"":""after digit#5""}",2,0.008333,120.000000,1
Sergio_G01_CNS-LLF5HT7Y0,cpeeg,offmed_offstim,20260312_130141,2026-03-12 13:01:57.554376,1,4,digit,POSTDIG_FIX5_OFF,160,2026-03-12 13:10:37.152358,519.556202,0.050853,,,,,,keyboard,after digit#5,"{""note"":""after digit#5"",""pd_used"":0}",2,0.008333,120.000000,1
Sergio_G01_CNS-LLF5HT7Y0,cpeeg,offmed_offstim,20260312_130141,2026-03-12 13:01:57.554376,1,4,distractor,DISTRACTOR_ON,50,2026-03-12 13:10:37.204501,519.607055,6.159650,,5+5=8,,,,keyboard,,"{""value"":""5+5=8"",""isCorrectTruth"":false,""trueSum"":10,""pd_used"":1}",2,0.008333,120.000000,1
Sergio_G01_CNS-LLF5HT7Y0,cpeeg,offmed_offstim,20260312_130141,2026-03-12 13:01:57.554376,1,4,distractor,DISTRACTOR_ANS,51,2026-03-12 13:10:43.871476,525.766704,0.000000,6.159650,5+5=8,F,1,,keyboard,key= (False),"{""value"":""5+5=8"",""entered"":""F"",""rt"":6.1596498000435531,""correct"":1,""note"":""key= (False)"",""truth"":false,""trueSum"":10,""shownSum"":8,""a"":5,""b"":5}",2,0.008333,120.000000,1
Sergio_G01_CNS-LLF5HT7Y0,cpeeg,offmed_offstim,20260312_130141,2026-03-12 13:01:57.554376,1,4,distractor,ANS_CORRECT,100,2026-03-12 13:10:43.915256,525.766704,0.602333,,,,,,keyboard,,{},2,0.008333,120.000000,1
Sergio_G01_CNS-LLF5HT7Y0,cpeeg,offmed_offstim,20260312_130141,2026-03-12 13:01:57.554376,1,4,distractor,DISTRACTOR_OFF,52,2026-03-12 13:10:43.966991,526.369038,0.000000,,,,,,keyboard,,"{""pd_used"":0}",2,0.008333,120.000000,1
Sergio_G01_CNS-LLF5HT7Y0,cpeeg,offmed_offstim,20260312_130141,2026-03-12 13:01:57.554376,1,4,distractor,FIX2_ON,60,2026-03-12 13:10:43.968994,526.369038,3.274288,,,,,,keyboard,immediate after response,"{""note"":""immediate after response""}",2,0.008333,120.000000,1
Sergio_G01_CNS-LLF5HT7Y0,cpeeg,offmed_offstim,20260312_130141,2026-03-12 13:01:57.554376,1,4,fix2,FIX2_OFF,61,2026-03-12 13:10:47.239076,529.643325,0.050185,,,,,,keyboard,,"{""pd_used"":0}",2,0.008333,120.000000,1
Sergio_G01_CNS-LLF5HT7Y0,cpeeg,offmed_offstim,20260312_130141,2026-03-12 13:01:57.554376,1,4,probe,DIGIT_RECALL_LINE_1,161,2026-03-12 13:10:47.291131,529.693510,2.204420,,1,,,,keyboard,first recall question,"{""value"":1,""note"":""first recall question"",""pd_used"":1}",2,0.008333,120.000000,1
Sergio_G01_CNS-LLF5HT7Y0,cpeeg,offmed_offstim,20260312_130141,2026-03-12 13:01:57.554376,1,4,probe,PROBE_DIGIT_OK_1,71,2026-03-12 13:10:50.039912,531.897931,0.639152,2.212272,slot#1,NaN,,,keyboard,probe_digit#1,"{""value"":""slot#1"",""entered"":null,""rt"":2.21227210003417,""note"":""probe_digit#1""}",2,0.008333,120.000000,1
Sergio_G01_CNS-LLF5HT7Y0,cpeeg,offmed_offstim,20260312_130141,2026-03-12 13:01:57.554376,1,4,probe,DIGIT1_OFF,146,2026-03-12 13:10:50.136596,532.537083,0.000000,,5,,,,keyboard,digit#1 off,"{""value"":5,""note"":""digit#1 off"",""pd_used"":0}",2,0.008333,120.000000,1
Sergio_G01_CNS-LLF5HT7Y0,cpeeg,offmed_offstim,20260312_130141,2026-03-12 13:01:57.554376,1,4,probe,POSTDIG_FIX1_ON,151,2026-03-12 13:10:50.138483,532.537083,1.928122,,,,,,keyboard,after digit#1,"{""note"":""after digit#1""}",2,0.008333,120.000000,1
Sergio_G01_CNS-LLF5HT7Y0,cpeeg,offmed_offstim,20260312_130141,2026-03-12 13:01:57.554376,1,4,probe,POSTDIG_FIX1_OFF,156,2026-03-12 13:10:52.062189,534.465205,0.059222,,,,,,keyboard,after digit#1,"{""note"":""after digit#1"",""pd_used"":0}",2,0.008333,120.000000,1
Sergio_G01_CNS-LLF5HT7Y0,cpeeg,offmed_offstim,20260312_130141,2026-03-12 13:01:57.554376,1,4,probe,DIGIT_RECALL_LINE_2,162,2026-03-12 13:10:52.120366,534.524426,0.996042,,2,,,,keyboard,next recall question,"{""value"":2,""note"":""next recall question"",""pd_used"":1}",2,0.008333,120.000000,1
Sergio_G01_CNS-LLF5HT7Y0,cpeeg,offmed_offstim,20260312_130141,2026-03-12 13:01:57.554376,1,4,probe,PROBE_DIGIT_OK_2,71,2026-03-12 13:10:53.401850,535.520469,0.377917,5.834810,slot#2,NaN,,,keyboard,probe_digit#2,"{""value"":""slot#2"",""entered"":null,""rt"":5.8348100000293925,""note"":""probe_digit#2""}",2,0.008333,120.000000,1
Sergio_G01_CNS-LLF5HT7Y0,cpeeg,offmed_offstim,20260312_130141,2026-03-12 13:01:57.554376,1,4,probe,DIGIT2_OFF,147,2026-03-12 13:10:53.497376,535.898386,0.000000,,5,,,,keyboard,digit#2 off,"{""value"":5,""note"":""digit#2 off"",""pd_used"":0}",2,0.008333,120.000000,1
Sergio_G01_CNS-LLF5HT7Y0,cpeeg,offmed_offstim,20260312_130141,2026-03-12 13:01:57.554376,1,4,probe,POSTDIG_FIX2_ON,152,2026-03-12 13:10:53.499523,535.898386,1.610960,,,,,,keyboard,after digit#2,"{""note"":""after digit#2""}",2,0.008333,120.000000,1
Sergio_G01_CNS-LLF5HT7Y0,cpeeg,offmed_offstim,20260312_130141,2026-03-12 13:01:57.554376,1,4,probe,POSTDIG_FIX2_OFF,157,2026-03-12 13:10:55.106118,537.509345,0.058462,,,,,,keyboard,after digit#2,"{""note"":""after digit#2"",""pd_used"":0}",2,0.008333,120.000000,1
Sergio_G01_CNS-LLF5HT7Y0,cpeeg,offmed_offstim,20260312_130141,2026-03-12 13:01:57.554376,1,4,probe,DIGIT_RECALL_LINE_3,163,2026-03-12 13:10:55.163524,537.567807,9.174008,,3,,,,keyboard,next recall question,"{""value"":3,""note"":""next recall question"",""pd_used"":1}",2,0.008333,120.000000,1
Sergio_G01_CNS-LLF5HT7Y0,cpeeg,offmed_offstim,20260312_130141,2026-03-12 13:01:57.554376,1,4,probe,PROBE_DIGIT_OK_3,71,2026-03-12 13:11:05.064734,546.741815,0.818974,17.056156,slot#3,NaN,,,keyboard,probe_digit#3,"{""value"":""slot#3"",""entered"":null,""rt"":17.056155900005251,""note"":""probe_digit#3""}",2,0.008333,120.000000,1
Sergio_G01_CNS-LLF5HT7Y0,cpeeg,offmed_offstim,20260312_130141,2026-03-12 13:01:57.554376,1,4,probe,DIGIT3_OFF,148,2026-03-12 13:11:05.160575,547.560788,0.000000,,5,,,,keyboard,digit#3 off,"{""value"":5,""note"":""digit#3 off"",""pd_used"":0}",2,0.008333,120.000000,1
Sergio_G01_CNS-LLF5HT7Y0,cpeeg,offmed_offstim,20260312_130141,2026-03-12 13:01:57.554376,1,4,probe,POSTDIG_FIX3_ON,153,2026-03-12 13:11:05.161777,547.560788,1.940021,,,,,,keyboard,after digit#3,"{""note"":""after digit#3""}",2,0.008333,120.000000,1
Sergio_G01_CNS-LLF5HT7Y0,cpeeg,offmed_offstim,20260312_130141,2026-03-12 13:01:57.554376,1,4,probe,POSTDIG_FIX3_OFF,158,2026-03-12 13:11:07.099281,549.500810,0.060824,,,,,,keyboard,after digit#3,"{""note"":""after digit#3"",""pd_used"":0}",2,0.008333,120.000000,1
Sergio_G01_CNS-LLF5HT7Y0,cpeeg,offmed_offstim,20260312_130141,2026-03-12 13:01:57.554376,1,4,probe,DIGIT_RECALL_LINE_4,164,2026-03-12 13:11:07.158171,549.561634,2.182935,,4,,,,keyboard,next recall question,"{""value"":4,""note"":""next recall question"",""pd_used"":1}",2,0.008333,120.000000,1
Sergio_G01_CNS-LLF5HT7Y0,cpeeg,offmed_offstim,20260312_130141,2026-03-12 13:01:57.554376,1,4,probe,PROBE_DIGIT_OK_4,71,2026-03-12 13:11:09.708756,551.744569,0.461215,22.058910,slot#4,NaN,,,keyboard,probe_digit#4,"{""value"":""slot#4"",""entered"":null,""rt"":22.058910000021569,""note"":""probe_digit#4""}",2,0.008333,120.000000,1
Sergio_G01_CNS-LLF5HT7Y0,cpeeg,offmed_offstim,20260312_130141,2026-03-12 13:01:57.554376,1,4,probe,DIGIT4_OFF,149,2026-03-12 13:11:09.805487,552.205784,0.000000,,5,,,,keyboard,digit#4 off,"{""value"":5,""note"":""digit#4 off"",""pd_used"":0}",2,0.008333,120.000000,1
Sergio_G01_CNS-LLF5HT7Y0,cpeeg,offmed_offstim,20260312_130141,2026-03-12 13:01:57.554376,1,4,probe,POSTDIG_FIX4_ON,154,2026-03-12 13:11:09.807072,552.205784,1.699241,,,,,,keyboard,after digit#4,"{""note"":""after digit#4""}",2,0.008333,120.000000,1
Sergio_G01_CNS-LLF5HT7Y0,cpeeg,offmed_offstim,20260312_130141,2026-03-12 13:01:57.554376,1,4,probe,POSTDIG_FIX4_OFF,159,2026-03-12 13:11:11.502564,553.905025,0.060364,,,,,,keyboard,after digit#4,"{""note"":""after digit#4"",""pd_used"":0}",2,0.008333,120.000000,1
Sergio_G01_CNS-LLF5HT7Y0,cpeeg,offmed_offstim,20260312_130141,2026-03-12 13:01:57.554376,1,4,probe,DIGIT_RECALL_LINE_5,165,2026-03-12 13:11:11.562126,553.965389,1.155437,,5,,,,keyboard,next recall question,"{""value"":5,""note"":""next recall question"",""pd_used"":1}",2,0.008333,120.000000,1
Sergio_G01_CNS-LLF5HT7Y0,cpeeg,offmed_offstim,20260312_130141,2026-03-12 13:01:57.554376,1,4,probe,PROBE_DIGIT_OK_5,71,2026-03-12 13:11:13.029501,555.120826,0.406412,25.435167,slot#5,NaN,,,keyboard,probe_digit#5,"{""value"":""slot#5"",""entered"":null,""rt"":25.435167200048454,""note"":""probe_digit#5""}",2,0.008333,120.000000,1
Sergio_G01_CNS-LLF5HT7Y0,cpeeg,offmed_offstim,20260312_130141,2026-03-12 13:01:57.554376,1,4,probe,DIGIT5_OFF,150,2026-03-12 13:11:13.126778,555.527238,0.000000,,5,,,,keyboard,digit#5 off,"{""value"":5,""note"":""digit#5 off"",""pd_used"":0}",2,0.008333,120.000000,1
Sergio_G01_CNS-LLF5HT7Y0,cpeeg,offmed_offstim,20260312_130141,2026-03-12 13:01:57.554376,1,4,probe,POSTDIG_FIX5_ON,155,2026-03-12 13:11:13.128576,555.527238,3.237535,,,,,,keyboard,after digit#5,"{""note"":""after digit#5""}",2,0.008333,120.000000,1
Sergio_G01_CNS-LLF5HT7Y0,cpeeg,offmed_offstim,20260312_130141,2026-03-12 13:01:57.554376,1,4,probe,POSTDIG_FIX5_OFF,160,2026-03-12 13:11:16.363285,558.764773,0.051388,,,,,,keyboard,after digit#5,"{""note"":""after digit#5"",""pd_used"":0}",2,0.008333,120.000000,1
Sergio_G01_CNS-LLF5HT7Y0,cpeeg,offmed_offstim,20260312_130141,2026-03-12 13:01:57.554376,1,4,probe,PROBE_DONE,73,2026-03-12 13:11:16.371045,558.816161,0.001897,,,,,,keyboard,probe complete,"{""value"":"""",""note"":""probe complete""}",2,0.008333,120.000000,1
Sergio_G01_CNS-LLF5HT7Y0,cpeeg,offmed_offstim,20260312_130141,2026-03-12 13:01:57.554376,1,4,probe,TRIAL_END,21,2026-03-12 13:11:16.372869,558.818058,0.044757,,,,,,keyboard,,{},2,0.008333,120.000000,1
Sergio_G01_CNS-LLF5HT7Y0,cpeeg,offmed_offstim,20260312_130141,2026-03-12 13:01:57.554376,1,5,probe,TRIAL_CHANGE,22,2026-03-12 13:11:16.417652,558.862815,0.001845,,,,,,keyboard,trial transition,"{""note"":""trial transition""}",2,0.008333,120.000000,1
Sergio_G01_CNS-LLF5HT7Y0,cpeeg,offmed_offstim,20260312_130141,2026-03-12 13:01:57.554376,1,5,probe,TRIAL_START,20,2026-03-12 13:11:16.419335,558.864660,0.059366,,,,,,keyboard,,{},2,0.008333,120.000000,1
Sergio_G01_CNS-LLF5HT7Y0,cpeeg,offmed_offstim,20260312_130141,2026-03-12 13:01:57.554376,1,5,fix1,FIX1_ON,30,2026-03-12 13:11:16.523208,558.924026,3.502478,,,,,,keyboard,,"{""pd_used"":0}",2,0.008333,120.000000,1
Sergio_G01_CNS-LLF5HT7Y0,cpeeg,offmed_offstim,20260312_130141,2026-03-12 13:01:57.554376,1,5,fix1,FIX1_OFF,31,2026-03-12 13:11:20.024568,562.426504,0.053697,,,,,,keyboard,,"{""pd_used"":0}",2,0.008333,120.000000,1
Sergio_G01_CNS-LLF5HT7Y0,cpeeg,offmed_offstim,20260312_130141,2026-03-12 13:01:57.554376,1,5,digit,DIGIT1_ON,141,2026-03-12 13:11:20.078251,562.480201,0.553983,,3,,,,keyboard,digit#1 shown,"{""value"":3,""note"":""digit#1 shown"",""pd_used"":1}",2,0.008333,120.000000,1
Sergio_G01_CNS-LLF5HT7Y0,cpeeg,offmed_offstim,20260312_130141,2026-03-12 13:01:57.554376,1,5,digit,DIGIT1_OFF,146,2026-03-12 13:11:20.632428,563.034183,0.000000,,3,,,,keyboard,digit#1 off,"{""value"":3,""note"":""digit#1 off"",""pd_used"":0}",2,0.008333,120.000000,1
Sergio_G01_CNS-LLF5HT7Y0,cpeeg,offmed_offstim,20260312_130141,2026-03-12 13:01:57.554376,1,5,digit,POSTDIG_FIX1_ON,151,2026-03-12 13:11:20.634337,563.034183,1.757294,,,,,,keyboard,after digit#1,"{""note"":""after digit#1""}",2,0.008333,120.000000,1
Sergio_G01_CNS-LLF5HT7Y0,cpeeg,offmed_offstim,20260312_130141,2026-03-12 13:01:57.554376,1,5,digit,POSTDIG_FIX1_OFF,156,2026-03-12 13:11:22.388637,564.791477,0.053607,,,,,,keyboard,after digit#1,"{""note"":""after digit#1"",""pd_used"":0}",2,0.008333,120.000000,1
Sergio_G01_CNS-LLF5HT7Y0,cpeeg,offmed_offstim,20260312_130141,2026-03-12 13:01:57.554376,1,5,digit,DIGIT2_ON,142,2026-03-12 13:11:22.442221,564.845084,0.552226,,2,,,,keyboard,digit#2 shown,"{""value"":2,""note"":""digit#2 shown"",""pd_used"":1}",2,0.008333,120.000000,1
Sergio_G01_CNS-LLF5HT7Y0,cpeeg,offmed_offstim,20260312_130141,2026-03-12 13:01:57.554376,1,5,digit,DIGIT2_OFF,147,2026-03-12 13:11:22.994891,565.397310,0.000000,,2,,,,keyboard,digit#2 off,"{""value"":2,""note"":""digit#2 off"",""pd_used"":0}",2,0.008333,120.000000,1
Sergio_G01_CNS-LLF5HT7Y0,cpeeg,offmed_offstim,20260312_130141,2026-03-12 13:01:57.554376,1,5,digit,POSTDIG_FIX2_ON,152,2026-03-12 13:11:22.996211,565.397310,1.869339,,,,,,keyboard,after digit#2,"{""note"":""after digit#2""}",2,0.008333,120.000000,1
Sergio_G01_CNS-LLF5HT7Y0,cpeeg,offmed_offstim,20260312_130141,2026-03-12 13:01:57.554376,1,5,digit,POSTDIG_FIX2_OFF,157,2026-03-12 13:11:24.863516,567.266649,0.051931,,,,,,keyboard,after digit#2,"{""note"":""after digit#2"",""pd_used"":0}",2,0.008333,120.000000,1
Sergio_G01_CNS-LLF5HT7Y0,cpeeg,offmed_offstim,20260312_130141,2026-03-12 13:01:57.554376,1,5,digit,DIGIT3_ON,143,2026-03-12 13:11:24.916696,567.318580,0.553146,,3,,,,keyboard,digit#3 shown,"{""value"":3,""note"":""digit#3 shown"",""pd_used"":1}",2,0.008333,120.000000,1
Sergio_G01_CNS-LLF5HT7Y0,cpeeg,offmed_offstim,20260312_130141,2026-03-12 13:01:57.554376,1,5,digit,DIGIT3_OFF,148,2026-03-12 13:11:25.469126,567.871726,0.000000,,3,,,,keyboard,digit#3 off,"{""value"":3,""note"":""digit#3 off"",""pd_used"":0}",2,0.008333,120.000000,1
Sergio_G01_CNS-LLF5HT7Y0,cpeeg,offmed_offstim,20260312_130141,2026-03-12 13:01:57.554376,1,5,digit,POSTDIG_FIX3_ON,153,2026-03-12 13:11:25.470896,567.871726,1.820654,,,,,,keyboard,after digit#3,"{""note"":""after digit#3""}",2,0.008333,120.000000,1
Sergio_G01_CNS-LLF5HT7Y0,cpeeg,offmed_offstim,20260312_130141,2026-03-12 13:01:57.554376,1,5,digit,POSTDIG_FIX3_OFF,158,2026-03-12 13:11:27.290847,569.692380,0.054359,,,,,,keyboard,after digit#3,"{""note"":""after digit#3"",""pd_used"":0}",2,0.008333,120.000000,1
Sergio_G01_CNS-LLF5HT7Y0,cpeeg,offmed_offstim,20260312_130141,2026-03-12 13:01:57.554376,1,5,digit,DIGIT4_ON,144,2026-03-12 13:11:27.343979,569.746738,0.552712,,1,,,,keyboard,digit#4 shown,"{""value"":1,""note"":""digit#4 shown"",""pd_used"":1}",2,0.008333,120.000000,1
Sergio_G01_CNS-LLF5HT7Y0,cpeeg,offmed_offstim,20260312_130141,2026-03-12 13:01:57.554376,1,5,digit,DIGIT4_OFF,149,2026-03-12 13:11:27.897861,570.299450,0.000000,,1,,,,keyboard,digit#4 off,"{""value"":1,""note"":""digit#4 off"",""pd_used"":0}",2,0.008333,120.000000,1
Sergio_G01_CNS-LLF5HT7Y0,cpeeg,offmed_offstim,20260312_130141,2026-03-12 13:01:57.554376,1,5,digit,POSTDIG_FIX4_ON,154,2026-03-12 13:11:27.899641,570.299450,1.626254,,,,,,keyboard,after digit#4,"{""note"":""after digit#4""}",2,0.008333,120.000000,1
Sergio_G01_CNS-LLF5HT7Y0,cpeeg,offmed_offstim,20260312_130141,2026-03-12 13:01:57.554376,1,5,digit,POSTDIG_FIX4_OFF,159,2026-03-12 13:11:29.522075,571.925704,0.051119,,,,,,keyboard,after digit#4,"{""note"":""after digit#4"",""pd_used"":0}",2,0.008333,120.000000,1
Sergio_G01_CNS-LLF5HT7Y0,cpeeg,offmed_offstim,20260312_130141,2026-03-12 13:01:57.554376,1,5,digit,DIGIT5_ON,145,2026-03-12 13:11:29.575387,571.976822,0.553771,,9,,,,keyboard,digit#5 shown,"{""value"":9,""note"":""digit#5 shown"",""pd_used"":1}",2,0.008333,120.000000,1
Sergio_G01_CNS-LLF5HT7Y0,cpeeg,offmed_offstim,20260312_130141,2026-03-12 13:01:57.554376,1,5,digit,DIGIT5_OFF,150,2026-03-12 13:11:30.126914,572.530593,0.000000,,9,,,,keyboard,digit#5 off,"{""value"":9,""note"":""digit#5 off"",""pd_used"":0}",2,0.008333,120.000000,1
Sergio_G01_CNS-LLF5HT7Y0,cpeeg,offmed_offstim,20260312_130141,2026-03-12 13:01:57.554376,1,5,digit,POSTDIG_FIX5_ON,155,2026-03-12 13:11:30.127722,572.530593,3.085715,,,,,,keyboard,after digit#5,"{""note"":""after digit#5""}",2,0.008333,120.000000,1
Sergio_G01_CNS-LLF5HT7Y0,cpeeg,offmed_offstim,20260312_130141,2026-03-12 13:01:57.554376,1,5,digit,POSTDIG_FIX5_OFF,160,2026-03-12 13:11:33.213414,575.616308,0.052350,,,,,,keyboard,after digit#5,"{""note"":""after digit#5"",""pd_used"":0}",2,0.008333,120.000000,1
Sergio_G01_CNS-LLF5HT7Y0,cpeeg,offmed_offstim,20260312_130141,2026-03-12 13:01:57.554376,1,5,distractor,DISTRACTOR_ON,50,2026-03-12 13:11:33.265718,575.668658,6.633153,,2+7=9,,,,keyboard,,"{""value"":""2+7=9"",""isCorrectTruth"":true,""trueSum"":9,""pd_used"":1}",2,0.008333,120.000000,1
Sergio_G01_CNS-LLF5HT7Y0,cpeeg,offmed_offstim,20260312_130141,2026-03-12 13:01:57.554376,1,5,distractor,DISTRACTOR_ANS,51,2026-03-12 13:11:40.246207,582.301811,0.000000,6.633153,2+7=9,F,0,,keyboard,key= (False),"{""value"":""2+7=9"",""entered"":""F"",""rt"":6.6331529000308365,""correct"":0,""note"":""key= (False)"",""truth"":true,""trueSum"":9,""shownSum"":9,""a"":2,""b"":7}",2,0.008333,120.000000,1
Sergio_G01_CNS-LLF5HT7Y0,cpeeg,offmed_offstim,20260312_130141,2026-03-12 13:01:57.554376,1,5,distractor,ANS_WRONG,200,2026-03-12 13:11:40.289829,582.301811,0.442178,,,,,,keyboard,,{},2,0.008333,120.000000,1
Sergio_G01_CNS-LLF5HT7Y0,cpeeg,offmed_offstim,20260312_130141,2026-03-12 13:01:57.554376,1,5,distractor,DISTRACTOR_OFF,52,2026-03-12 13:11:40.340929,582.743989,0.000000,,,,,,keyboard,,"{""pd_used"":0}",2,0.008333,120.000000,1
Sergio_G01_CNS-LLF5HT7Y0,cpeeg,offmed_offstim,20260312_130141,2026-03-12 13:01:57.554376,1,5,distractor,FIX2_ON,60,2026-03-12 13:11:40.341736,582.743989,3.548618,,,,,,keyboard,immediate after response,"{""note"":""immediate after response""}",2,0.008333,120.000000,1
Sergio_G01_CNS-LLF5HT7Y0,cpeeg,offmed_offstim,20260312_130141,2026-03-12 13:01:57.554376,1,5,fix2,FIX2_OFF,61,2026-03-12 13:11:43.889116,586.292607,0.050734,,,,,,keyboard,,"{""pd_used"":0}",2,0.008333,120.000000,1
Sergio_G01_CNS-LLF5HT7Y0,cpeeg,offmed_offstim,20260312_130141,2026-03-12 13:01:57.554376,1,5,probe,DIGIT_RECALL_LINE_1,161,2026-03-12 13:11:43.940028,586.343341,15.900358,,1,,,,keyboard,first recall question,"{""value"":1,""note"":""first recall question"",""pd_used"":1}",2,0.008333,120.000000,1
Sergio_G01_CNS-LLF5HT7Y0,cpeeg,offmed_offstim,20260312_130141,2026-03-12 13:01:57.554376,1,5,probe,PROBE_DIGIT_OK_1,71,2026-03-12 13:12:00.277548,602.243699,0.531014,15.907920,slot#1,NaN,,,keyboard,probe_digit#1,"{""value"":""slot#1"",""entered"":null,""rt"":15.907919500023127,""note"":""probe_digit#1""}",2,0.008333,120.000000,1
Sergio_G01_CNS-LLF5HT7Y0,cpeeg,offmed_offstim,20260312_130141,2026-03-12 13:01:57.554376,1,5,probe,DIGIT1_OFF,146,2026-03-12 13:12:00.372554,602.774713,0.000000,,9,,,,keyboard,digit#1 off,"{""value"":9,""note"":""digit#1 off"",""pd_used"":0}",2,0.008333,120.000000,1
Sergio_G01_CNS-LLF5HT7Y0,cpeeg,offmed_offstim,20260312_130141,2026-03-12 13:01:57.554376,1,5,probe,POSTDIG_FIX1_ON,151,2026-03-12 13:12:00.373373,602.774713,1.672799,,,,,,keyboard,after digit#1,"{""note"":""after digit#1""}",2,0.008333,120.000000,1
Sergio_G01_CNS-LLF5HT7Y0,cpeeg,offmed_offstim,20260312_130141,2026-03-12 13:01:57.554376,1,5,probe,POSTDIG_FIX1_OFF,156,2026-03-12 13:12:02.044973,604.447512,0.060659,,,,,,keyboard,after digit#1,"{""note"":""after digit#1"",""pd_used"":0}",2,0.008333,120.000000,1
Sergio_G01_CNS-LLF5HT7Y0,cpeeg,offmed_offstim,20260312_130141,2026-03-12 13:01:57.554376,1,5,probe,DIGIT_RECALL_LINE_2,162,2026-03-12 13:12:02.104543,604.508171,3.594618,,2,,,,keyboard,next recall question,"{""value"":2,""note"":""next recall question"",""pd_used"":1}",2,0.008333,120.000000,1
Sergio_G01_CNS-LLF5HT7Y0,cpeeg,offmed_offstim,20260312_130141,2026-03-12 13:01:57.554376,1,5,probe,PROBE_DIGIT_OK_2,71,2026-03-12 13:12:06.170038,608.102789,0.563670,21.767009,slot#2,NaN,,,keyboard,probe_digit#2,"{""value"":""slot#2"",""entered"":null,""rt"":21.767009499948472,""note"":""probe_digit#2""}",2,0.008333,120.000000,1
Sergio_G01_CNS-LLF5HT7Y0,cpeeg,offmed_offstim,20260312_130141,2026-03-12 13:01:57.554376,1,5,probe,DIGIT2_OFF,147,2026-03-12 13:12:06.266836,608.666459,0.000000,,9,,,,keyboard,digit#2 off,"{""value"":9,""note"":""digit#2 off"",""pd_used"":0}",2,0.008333,120.000000,1
Sergio_G01_CNS-LLF5HT7Y0,cpeeg,offmed_offstim,20260312_130141,2026-03-12 13:01:57.554376,1,5,probe,POSTDIG_FIX2_ON,152,2026-03-12 13:12:06.268418,608.666459,1.983901,,,,,,keyboard,after digit#2,"{""note"":""after digit#2""}",2,0.008333,120.000000,1
Sergio_G01_CNS-LLF5HT7Y0,cpeeg,offmed_offstim,20260312_130141,2026-03-12 13:01:57.554376,1,5,probe,POSTDIG_FIX2_OFF,157,2026-03-12 13:12:08.247383,610.650360,0.058428,,,,,,keyboard,after digit#2,"{""note"":""after digit#2"",""pd_used"":0}",2,0.008333,120.000000,1
Sergio_G01_CNS-LLF5HT7Y0,cpeeg,offmed_offstim,20260312_130141,2026-03-12 13:01:57.554376,1,5,probe,DIGIT_RECALL_LINE_3,163,2026-03-12 13:12:08.305946,610.708788,2.311426,,3,,,,keyboard,next recall question,"{""value"":3,""note"":""next recall question"",""pd_used"":1}",2,0.008333,120.000000,1
Sergio_G01_CNS-LLF5HT7Y0,cpeeg,offmed_offstim,20260312_130141,2026-03-12 13:01:57.554376,1,5,probe,PROBE_DIGIT_OK_3,71,2026-03-12 13:12:11.079195,613.020214,0.555304,26.684435,slot#3,NaN,,,keyboard,probe_digit#3,"{""value"":""slot#3"",""entered"":null,""rt"":26.684434999944642,""note"":""probe_digit#3""}",2,0.008333,120.000000,1
Sergio_G01_CNS-LLF5HT7Y0,cpeeg,offmed_offstim,20260312_130141,2026-03-12 13:01:57.554376,1,5,probe,DIGIT3_OFF,148,2026-03-12 13:12:11.175252,613.575518,0.000000,,9,,,,keyboard,digit#3 off,"{""value"":9,""note"":""digit#3 off"",""pd_used"":0}",2,0.008333,120.000000,1
Sergio_G01_CNS-LLF5HT7Y0,cpeeg,offmed_offstim,20260312_130141,2026-03-12 13:01:57.554376,1,5,probe,POSTDIG_FIX3_ON,153,2026-03-12 13:12:11.177015,613.575518,1.887583,,,,,,keyboard,after digit#3,"{""note"":""after digit#3""}",2,0.008333,120.000000,1
Sergio_G01_CNS-LLF5HT7Y0,cpeeg,offmed_offstim,20260312_130141,2026-03-12 13:01:57.554376,1,5,probe,POSTDIG_FIX3_OFF,158,2026-03-12 13:12:13.060037,615.463101,0.059273,,,,,,keyboard,after digit#3,"{""note"":""after digit#3"",""pd_used"":0}",2,0.008333,120.000000,1
Sergio_G01_CNS-LLF5HT7Y0,cpeeg,offmed_offstim,20260312_130141,2026-03-12 13:01:57.554376,1,5,probe,DIGIT_RECALL_LINE_4,164,2026-03-12 13:12:13.118399,615.522374,4.046814,,4,,,,keyboard,next recall question,"{""value"":4,""note"":""next recall question"",""pd_used"":1}",2,0.008333,120.000000,1
Sergio_G01_CNS-LLF5HT7Y0,cpeeg,offmed_offstim,20260312_130141,2026-03-12 13:01:57.554376,1,5,probe,PROBE_DIGIT_OK_4,71,2026-03-12 13:12:17.876795,619.569188,0.803920,33.233409,slot#4,NaN,,,keyboard,probe_digit#4,"{""value"":""slot#4"",""entered"":null,""rt"":33.23340869997628,""note"":""probe_digit#4""}",2,0.008333,120.000000,1
Sergio_G01_CNS-LLF5HT7Y0,cpeeg,offmed_offstim,20260312_130141,2026-03-12 13:01:57.554376,1,5,probe,DIGIT4_OFF,149,2026-03-12 13:12:17.971940,620.373108,0.000000,,9,,,,keyboard,digit#4 off,"{""value"":9,""note"":""digit#4 off"",""pd_used"":0}",2,0.008333,120.000000,1
Sergio_G01_CNS-LLF5HT7Y0,cpeeg,offmed_offstim,20260312_130141,2026-03-12 13:01:57.554376,1,5,probe,POSTDIG_FIX4_ON,154,2026-03-12 13:12:17.973276,620.373108,2.053461,,,,,,keyboard,after digit#4,"{""note"":""after digit#4""}",2,0.008333,120.000000,1
Sergio_G01_CNS-LLF5HT7Y0,cpeeg,offmed_offstim,20260312_130141,2026-03-12 13:01:57.554376,1,5,probe,POSTDIG_FIX4_OFF,159,2026-03-12 13:12:20.024304,622.426569,0.059935,,,,,,keyboard,after digit#4,"{""note"":""after digit#4"",""pd_used"":0}",2,0.008333,120.000000,1
Sergio_G01_CNS-LLF5HT7Y0,cpeeg,offmed_offstim,20260312_130141,2026-03-12 13:01:57.554376,1,5,probe,DIGIT_RECALL_LINE_5,165,2026-03-12 13:12:20.084357,622.486504,2.791557,,5,,,,keyboard,next recall question,"{""value"":5,""note"":""next recall question"",""pd_used"":1}",2,0.008333,120.000000,1
Sergio_G01_CNS-LLF5HT7Y0,cpeeg,offmed_offstim,20260312_130141,2026-03-12 13:01:57.554376,1,5,probe,PROBE_DIGIT_OK_5,71,2026-03-12 13:12:23.514887,625.278062,0.732932,38.942282,slot#5,NaN,,,keyboard,probe_digit#5,"{""value"":""slot#5"",""entered"":null,""rt"":38.942282299976796,""note"":""probe_digit#5""}",2,0.008333,120.000000,1
Sergio_G01_CNS-LLF5HT7Y0,cpeeg,offmed_offstim,20260312_130141,2026-03-12 13:01:57.554376,1,5,probe,DIGIT5_OFF,150,2026-03-12 13:12:23.609762,626.010994,0.000000,,9,,,,keyboard,digit#5 off,"{""value"":9,""note"":""digit#5 off"",""pd_used"":0}",2,0.008333,120.000000,1
Sergio_G01_CNS-LLF5HT7Y0,cpeeg,offmed_offstim,20260312_130141,2026-03-12 13:01:57.554376,1,5,probe,POSTDIG_FIX5_ON,155,2026-03-12 13:12:23.610784,626.010994,3.286373,,,,,,keyboard,after digit#5,"{""note"":""after digit#5""}",2,0.008333,120.000000,1
Sergio_G01_CNS-LLF5HT7Y0,cpeeg,offmed_offstim,20260312_130141,2026-03-12 13:01:57.554376,1,5,probe,POSTDIG_FIX5_OFF,160,2026-03-12 13:12:26.895418,629.297366,0.050845,,,,,,keyboard,after digit#5,"{""note"":""after digit#5"",""pd_used"":0}",2,0.008333,120.000000,1
Sergio_G01_CNS-LLF5HT7Y0,cpeeg,offmed_offstim,20260312_130141,2026-03-12 13:01:57.554376,1,5,probe,PROBE_DONE,73,2026-03-12 13:12:26.902931,629.348212,0.001540,,,,,,keyboard,probe complete,"{""value"":"""",""note"":""probe complete""}",2,0.008333,120.000000,1
Sergio_G01_CNS-LLF5HT7Y0,cpeeg,offmed_offstim,20260312_130141,2026-03-12 13:01:57.554376,1,5,probe,TRIAL_END,21,2026-03-12 13:12:26.904299,629.349752,0.043836,,,,,,keyboard,,{},2,0.008333,120.000000,1
Sergio_G01_CNS-LLF5HT7Y0,cpeeg,offmed_offstim,20260312_130141,2026-03-12 13:01:57.554376,1,6,probe,TRIAL_CHANGE,22,2026-03-12 13:12:26.948116,629.393588,0.001220,,,,,,keyboard,trial transition,"{""note"":""trial transition""}",2,0.008333,120.000000,1
Sergio_G01_CNS-LLF5HT7Y0,cpeeg,offmed_offstim,20260312_130141,2026-03-12 13:01:57.554376,1,6,probe,TRIAL_START,20,2026-03-12 13:12:26.949214,629.394808,0.059503,,,,,,keyboard,,{},2,0.008333,120.000000,1
Sergio_G01_CNS-LLF5HT7Y0,cpeeg,offmed_offstim,20260312_130141,2026-03-12 13:01:57.554376,1,6,fix1,FIX1_ON,30,2026-03-12 13:12:27.052494,629.454311,3.370819,,,,,,keyboard,,"{""pd_used"":0}",2,0.008333,120.000000,1
Sergio_G01_CNS-LLF5HT7Y0,cpeeg,offmed_offstim,20260312_130141,2026-03-12 13:01:57.554376,1,6,fix1,FIX1_OFF,31,2026-03-12 13:12:30.422640,632.825130,0.052929,,,,,,keyboard,,"{""pd_used"":0}",2,0.008333,120.000000,1
Sergio_G01_CNS-LLF5HT7Y0,cpeeg,offmed_offstim,20260312_130141,2026-03-12 13:01:57.554376,1,6,digit,DIGIT1_ON,141,2026-03-12 13:12:30.475906,632.878059,0.553255,,8,,,,keyboard,digit#1 shown,"{""value"":8,""note"":""digit#1 shown"",""pd_used"":1}",2,0.008333,120.000000,1
Sergio_G01_CNS-LLF5HT7Y0,cpeeg,offmed_offstim,20260312_130141,2026-03-12 13:01:57.554376,1,6,digit,DIGIT1_OFF,146,2026-03-12 13:12:31.028601,633.431314,0.000000,,8,,,,keyboard,digit#1 off,"{""value"":8,""note"":""digit#1 off"",""pd_used"":0}",2,0.008333,120.000000,1
Sergio_G01_CNS-LLF5HT7Y0,cpeeg,offmed_offstim,20260312_130141,2026-03-12 13:01:57.554376,1,6,digit,POSTDIG_FIX1_ON,151,2026-03-12 13:12:31.030270,633.431314,1.670356,,,,,,keyboard,after digit#1,"{""note"":""after digit#1""}",2,0.008333,120.000000,1
Sergio_G01_CNS-LLF5HT7Y0,cpeeg,offmed_offstim,20260312_130141,2026-03-12 13:01:57.554376,1,6,digit,POSTDIG_FIX1_OFF,156,2026-03-12 13:12:32.700064,635.101671,0.054302,,,,,,keyboard,after digit#1,"{""note"":""after digit#1"",""pd_used"":0}",2,0.008333,120.000000,1
Sergio_G01_CNS-LLF5HT7Y0,cpeeg,offmed_offstim,20260312_130141,2026-03-12 13:01:57.554376,1,6,digit,DIGIT2_ON,142,2026-03-12 13:12:32.752967,635.155973,0.552191,,8,,,,keyboard,digit#2 shown,"{""value"":8,""note"":""digit#2 shown"",""pd_used"":1}",2,0.008333,120.000000,1
Sergio_G01_CNS-LLF5HT7Y0,cpeeg,offmed_offstim,20260312_130141,2026-03-12 13:01:57.554376,1,6,digit,DIGIT2_OFF,147,2026-03-12 13:12:33.305706,635.708164,0.000000,,8,,,,keyboard,digit#2 off,"{""value"":8,""note"":""digit#2 off"",""pd_used"":0}",2,0.008333,120.000000,1
Sergio_G01_CNS-LLF5HT7Y0,cpeeg,offmed_offstim,20260312_130141,2026-03-12 13:01:57.554376,1,6,digit,POSTDIG_FIX2_ON,152,2026-03-12 13:12:33.307671,635.708164,1.622553,,,,,,keyboard,after digit#2,"{""note"":""after digit#2""}",2,0.008333,120.000000,1
Sergio_G01_CNS-LLF5HT7Y0,cpeeg,offmed_offstim,20260312_130141,2026-03-12 13:01:57.554376,1,6,digit,POSTDIG_FIX2_OFF,157,2026-03-12 13:12:34.927149,637.330717,0.051281,,,,,,keyboard,after digit#2,"{""note"":""after digit#2"",""pd_used"":0}",2,0.008333,120.000000,1
Sergio_G01_CNS-LLF5HT7Y0,cpeeg,offmed_offstim,20260312_130141,2026-03-12 13:01:57.554376,1,6,digit,DIGIT3_ON,143,2026-03-12 13:12:34.979166,637.381998,0.552726,,6,,,,keyboard,digit#3 shown,"{""value"":6,""note"":""digit#3 shown"",""pd_used"":1}",2,0.008333,120.000000,1
Sergio_G01_CNS-LLF5HT7Y0,cpeeg,offmed_offstim,20260312_130141,2026-03-12 13:01:57.554376,1,6,digit,DIGIT3_OFF,148,2026-03-12 13:12:35.532023,637.934724,0.000000,,6,,,,keyboard,digit#3 off,"{""value"":6,""note"":""digit#3 off"",""pd_used"":0}",2,0.008333,120.000000,1
Sergio_G01_CNS-LLF5HT7Y0,cpeeg,offmed_offstim,20260312_130141,2026-03-12 13:01:57.554376,1,6,digit,POSTDIG_FIX3_ON,153,2026-03-12 13:12:35.533589,637.934724,1.929564,,,,,,keyboard,after digit#3,"{""note"":""after digit#3""}",2,0.008333,120.000000,1
Sergio_G01_CNS-LLF5HT7Y0,cpeeg,offmed_offstim,20260312_130141,2026-03-12 13:01:57.554376,1,6,digit,POSTDIG_FIX3_OFF,158,2026-03-12 13:12:37.461592,639.864289,0.052739,,,,,,keyboard,after digit#3,"{""note"":""after digit#3"",""pd_used"":0}",2,0.008333,120.000000,1
Sergio_G01_CNS-LLF5HT7Y0,cpeeg,offmed_offstim,20260312_130141,2026-03-12 13:01:57.554376,1,6,digit,DIGIT4_ON,144,2026-03-12 13:12:37.513693,639.917028,0.553681,,0,,,,keyboard,digit#4 shown,"{""value"":0,""note"":""digit#4 shown"",""pd_used"":1}",2,0.008333,120.000000,1
Sergio_G01_CNS-LLF5HT7Y0,cpeeg,offmed_offstim,20260312_130141,2026-03-12 13:01:57.554376,1,6,digit,DIGIT4_OFF,149,2026-03-12 13:12:38.067744,640.470709,0.000000,,0,,,,keyboard,digit#4 off,"{""value"":0,""note"":""digit#4 off"",""pd_used"":0}",2,0.008333,120.000000,1
Sergio_G01_CNS-LLF5HT7Y0,cpeeg,offmed_offstim,20260312_130141,2026-03-12 13:01:57.554376,1,6,digit,POSTDIG_FIX4_ON,154,2026-03-12 13:12:38.069171,640.470709,1.956213,,,,,,keyboard,after digit#4,"{""note"":""after digit#4""}",2,0.008333,120.000000,1
Sergio_G01_CNS-LLF5HT7Y0,cpeeg,offmed_offstim,20260312_130141,2026-03-12 13:01:57.554376,1,6,digit,POSTDIG_FIX4_OFF,159,2026-03-12 13:12:40.023835,642.426922,0.052334,,,,,,keyboard,after digit#4,"{""note"":""after digit#4"",""pd_used"":0}",2,0.008333,120.000000,1
Sergio_G01_CNS-LLF5HT7Y0,cpeeg,offmed_offstim,20260312_130141,2026-03-12 13:01:57.554376,1,6,digit,DIGIT5_ON,145,2026-03-12 13:12:40.075118,642.479256,0.551179,,9,,,,keyboard,digit#5 shown,"{""value"":9,""note"":""digit#5 shown"",""pd_used"":1}",2,0.008333,120.000000,1
Sergio_G01_CNS-LLF5HT7Y0,cpeeg,offmed_offstim,20260312_130141,2026-03-12 13:01:57.554376,1,6,digit,DIGIT5_OFF,150,2026-03-12 13:12:40.627667,643.030435,0.000000,,9,,,,keyboard,digit#5 off,"{""value"":9,""note"":""digit#5 off"",""pd_used"":0}",2,0.008333,120.000000,1
Sergio_G01_CNS-LLF5HT7Y0,cpeeg,offmed_offstim,20260312_130141,2026-03-12 13:01:57.554376,1,6,digit,POSTDIG_FIX5_ON,155,2026-03-12 13:12:40.628865,643.030435,3.120838,,,,,,keyboard,after digit#5,"{""note"":""after digit#5""}",2,0.008333,120.000000,1
Sergio_G01_CNS-LLF5HT7Y0,cpeeg,offmed_offstim,20260312_130141,2026-03-12 13:01:57.554376,1,6,digit,POSTDIG_FIX5_OFF,160,2026-03-12 13:12:43.747802,646.151273,0.051594,,,,,,keyboard,after digit#5,"{""note"":""after digit#5"",""pd_used"":0}",2,0.008333,120.000000,1
Sergio_G01_CNS-LLF5HT7Y0,cpeeg,offmed_offstim,20260312_130141,2026-03-12 13:01:57.554376,1,6,distractor,DISTRACTOR_ON,50,2026-03-12 13:12:43.800064,646.202867,20.035523,,9+8=17,,,,keyboard,,"{""value"":""9+8=17"",""isCorrectTruth"":true,""trueSum"":17,""pd_used"":1}",2,0.008333,120.000000,1
Sergio_G01_CNS-LLF5HT7Y0,cpeeg,offmed_offstim,20260312_130141,2026-03-12 13:01:57.554376,1,6,distractor,DISTRACTOR_OFF,52,2026-03-12 13:13:03.835090,666.238390,0.000000,,,,,,keyboard,,"{""pd_used"":0}",2,0.008333,120.000000,1
Sergio_G01_CNS-LLF5HT7Y0,cpeeg,offmed_offstim,20260312_130141,2026-03-12 13:01:57.554376,1,6,distractor,FIX2_ON,60,2026-03-12 13:13:03.836943,666.238390,3.191113,,,,,,keyboard,deadline reached,"{""note"":""deadline reached""}",2,0.008333,120.000000,1
Sergio_G01_CNS-LLF5HT7Y0,cpeeg,offmed_offstim,20260312_130141,2026-03-12 13:01:57.554376,1,6,fix2,FIX2_OFF,61,2026-03-12 13:13:07.026767,669.429503,0.052488,,,,,,keyboard,,"{""pd_used"":0}",2,0.008333,120.000000,1
Sergio_G01_CNS-LLF5HT7Y0,cpeeg,offmed_offstim,20260312_130141,2026-03-12 13:01:57.554376,1,6,probe,DIGIT_RECALL_LINE_1,161,2026-03-12 13:13:07.079766,669.481991,17.681104,,1,,,,keyboard,first recall question,"{""value"":1,""note"":""first recall question"",""pd_used"":1}",2,0.008333,120.000000,1
Sergio_G01_CNS-LLF5HT7Y0,cpeeg,offmed_offstim,20260312_130141,2026-03-12 13:01:57.554376,1,6,probe,PROBE_DIGIT_OK_1,71,2026-03-12 13:13:25.185043,687.163094,0.517863,17.689261,slot#1,NaN,,,keyboard,probe_digit#1,"{""value"":""slot#1"",""entered"":null,""rt"":17.689261200022884,""note"":""probe_digit#1""}",2,0.008333,120.000000,1
Sergio_G01_CNS-LLF5HT7Y0,cpeeg,offmed_offstim,20260312_130141,2026-03-12 13:01:57.554376,1,6,probe,DIGIT1_OFF,146,2026-03-12 13:13:25.280464,687.680957,0.000000,,9,,,,keyboard,digit#1 off,"{""value"":9,""note"":""digit#1 off"",""pd_used"":0}",2,0.008333,120.000000,1
Sergio_G01_CNS-LLF5HT7Y0,cpeeg,offmed_offstim,20260312_130141,2026-03-12 13:01:57.554376,1,6,probe,POSTDIG_FIX1_ON,151,2026-03-12 13:13:25.282258,687.680957,1.787242,,,,,,keyboard,after digit#1,"{""note"":""after digit#1""}",2,0.008333,120.000000,1
Sergio_G01_CNS-LLF5HT7Y0,cpeeg,offmed_offstim,20260312_130141,2026-03-12 13:01:57.554376,1,6,probe,POSTDIG_FIX1_OFF,156,2026-03-12 13:13:27.064657,689.468199,0.058183,,,,,,keyboard,after digit#1,"{""note"":""after digit#1"",""pd_used"":0}",2,0.008333,120.000000,1
Sergio_G01_CNS-LLF5HT7Y0,cpeeg,offmed_offstim,20260312_130141,2026-03-12 13:01:57.554376,1,6,probe,DIGIT_RECALL_LINE_2,162,2026-03-12 13:13:27.122873,689.526382,8.029489,,2,,,,keyboard,next recall question,"{""value"":2,""note"":""next recall question"",""pd_used"":1}",2,0.008333,120.000000,1
Sergio_G01_CNS-LLF5HT7Y0,cpeeg,offmed_offstim,20260312_130141,2026-03-12 13:01:57.554376,1,6,probe,PROBE_DIGIT_OK_2,71,2026-03-12 13:13:35.696391,697.555872,0.635299,28.082039,slot#2,NaN,,,keyboard,probe_digit#2,"{""value"":""slot#2"",""entered"":null,""rt"":28.082038900000043,""note"":""probe_digit#2""}",2,0.008333,120.000000,1
Sergio_G01_CNS-LLF5HT7Y0,cpeeg,offmed_offstim,20260312_130141,2026-03-12 13:01:57.554376,1,6,probe,DIGIT2_OFF,147,2026-03-12 13:13:35.791130,698.191171,0.000000,,9,,,,keyboard,digit#2 off,"{""value"":9,""note"":""digit#2 off"",""pd_used"":0}",2,0.008333,120.000000,1
Sergio_G01_CNS-LLF5HT7Y0,cpeeg,offmed_offstim,20260312_130141,2026-03-12 13:01:57.554376,1,6,probe,POSTDIG_FIX2_ON,152,2026-03-12 13:13:35.792781,698.191171,1.822130,,,,,,keyboard,after digit#2,"{""note"":""after digit#2""}",2,0.008333,120.000000,1
Sergio_G01_CNS-LLF5HT7Y0,cpeeg,offmed_offstim,20260312_130141,2026-03-12 13:01:57.554376,1,6,probe,POSTDIG_FIX2_OFF,157,2026-03-12 13:13:37.609166,700.013302,0.058560,,,,,,keyboard,after digit#2,"{""note"":""after digit#2"",""pd_used"":0}",2,0.008333,120.000000,1
Sergio_G01_CNS-LLF5HT7Y0,cpeeg,offmed_offstim,20260312_130141,2026-03-12 13:01:57.554376,1,6,probe,DIGIT_RECALL_LINE_3,163,2026-03-12 13:13:37.667325,700.071862,4.368009,,3,,,,keyboard,next recall question,"{""value"":3,""note"":""next recall question"",""pd_used"":1}",2,0.008333,120.000000,1
Sergio_G01_CNS-LLF5HT7Y0,cpeeg,offmed_offstim,20260312_130141,2026-03-12 13:01:57.554376,1,6,probe,PROBE_DIGIT_OK_3,71,2026-03-12 13:13:42.337929,704.439870,0.394159,34.966037,slot#3,NaN,,,keyboard,probe_digit#3,"{""value"":""slot#3"",""entered"":null,""rt"":34.966037400066853,""note"":""probe_digit#3""}",2,0.008333,120.000000,1
Sergio_G01_CNS-LLF5HT7Y0,cpeeg,offmed_offstim,20260312_130141,2026-03-12 13:01:57.554376,1,6,probe,DIGIT3_OFF,148,2026-03-12 13:13:42.432480,704.834030,0.000000,,9,,,,keyboard,digit#3 off,"{""value"":9,""note"":""digit#3 off"",""pd_used"":0}",2,0.008333,120.000000,1
Sergio_G01_CNS-LLF5HT7Y0,cpeeg,offmed_offstim,20260312_130141,2026-03-12 13:01:57.554376,1,6,probe,POSTDIG_FIX3_ON,153,2026-03-12 13:13:42.433270,704.834030,1.630746,,,,,,keyboard,after digit#3,"{""note"":""after digit#3""}",2,0.008333,120.000000,1
Sergio_G01_CNS-LLF5HT7Y0,cpeeg,offmed_offstim,20260312_130141,2026-03-12 13:01:57.554376,1,6,probe,POSTDIG_FIX3_OFF,158,2026-03-12 13:13:44.060674,706.464775,0.057484,,,,,,keyboard,after digit#3,"{""note"":""after digit#3"",""pd_used"":0}",2,0.008333,120.000000,1
Sergio_G01_CNS-LLF5HT7Y0,cpeeg,offmed_offstim,20260312_130141,2026-03-12 13:01:57.554376,1,6,probe,DIGIT_RECALL_LINE_4,164,2026-03-12 13:13:44.117471,706.522259,4.105155,,4,,,,keyboard,next recall question,"{""value"":4,""note"":""next recall question"",""pd_used"":1}",2,0.008333,120.000000,1
Sergio_G01_CNS-LLF5HT7Y0,cpeeg,offmed_offstim,20260312_130141,2026-03-12 13:01:57.554376,1,6,probe,PROBE_DIGIT_OK_4,71,2026-03-12 13:13:48.746872,710.627414,0.615555,41.153581,slot#4,NaN,,,keyboard,probe_digit#4,"{""value"":""slot#4"",""entered"":null,""rt"":41.153580900048837,""note"":""probe_digit#4""}",2,0.008333,120.000000,1
Sergio_G01_CNS-LLF5HT7Y0,cpeeg,offmed_offstim,20260312_130141,2026-03-12 13:01:57.554376,1,6,probe,DIGIT4_OFF,149,2026-03-12 13:13:48.841494,711.242969,0.000000,,9,,,,keyboard,digit#4 off,"{""value"":9,""note"":""digit#4 off"",""pd_used"":0}",2,0.008333,120.000000,1
Sergio_G01_CNS-LLF5HT7Y0,cpeeg,offmed_offstim,20260312_130141,2026-03-12 13:01:57.554376,1,6,probe,POSTDIG_FIX4_ON,154,2026-03-12 13:13:48.842173,711.242969,1.845909,,,,,,keyboard,after digit#4,"{""note"":""after digit#4""}",2,0.008333,120.000000,1
Sergio_G01_CNS-LLF5HT7Y0,cpeeg,offmed_offstim,20260312_130141,2026-03-12 13:01:57.554376,1,6,probe,POSTDIG_FIX4_OFF,159,2026-03-12 13:13:50.685192,713.088878,0.058365,,,,,,keyboard,after digit#4,"{""note"":""after digit#4"",""pd_used"":0}",2,0.008333,120.000000,1
Sergio_G01_CNS-LLF5HT7Y0,cpeeg,offmed_offstim,20260312_130141,2026-03-12 13:01:57.554376,1,6,probe,DIGIT_RECALL_LINE_5,165,2026-03-12 13:13:50.743000,713.147242,3.057903,,5,,,,keyboard,next recall question,"{""value"":5,""note"":""next recall question"",""pd_used"":1}",2,0.008333,120.000000,1
Sergio_G01_CNS-LLF5HT7Y0,cpeeg,offmed_offstim,20260312_130141,2026-03-12 13:01:57.554376,1,6,probe,PROBE_DIGIT_OK_5,71,2026-03-12 13:13:54.115277,716.205146,0.406279,46.731313,slot#5,NaN,,,keyboard,probe_digit#5,"{""value"":""slot#5"",""entered"":null,""rt"":46.731312999967486,""note"":""probe_digit#5""}",2,0.008333,120.000000,1
Sergio_G01_CNS-LLF5HT7Y0,cpeeg,offmed_offstim,20260312_130141,2026-03-12 13:01:57.554376,1,6,probe,DIGIT5_OFF,150,2026-03-12 13:13:54.209045,716.611425,0.000000,,9,,,,keyboard,digit#5 off,"{""value"":9,""note"":""digit#5 off"",""pd_used"":0}",2,0.008333,120.000000,1
Sergio_G01_CNS-LLF5HT7Y0,cpeeg,offmed_offstim,20260312_130141,2026-03-12 13:01:57.554376,1,6,probe,POSTDIG_FIX5_ON,155,2026-03-12 13:13:54.209756,716.611425,3.062462,,,,,,keyboard,after digit#5,"{""note"":""after digit#5""}",2,0.008333,120.000000,1
Sergio_G01_CNS-LLF5HT7Y0,cpeeg,offmed_offstim,20260312_130141,2026-03-12 13:01:57.554376,1,6,probe,POSTDIG_FIX5_OFF,160,2026-03-12 13:13:57.269697,719.673887,0.047978,,,,,,keyboard,after digit#5,"{""note"":""after digit#5"",""pd_used"":0}",2,0.008333,120.000000,1
Sergio_G01_CNS-LLF5HT7Y0,cpeeg,offmed_offstim,20260312_130141,2026-03-12 13:01:57.554376,1,6,probe,PROBE_DONE,73,2026-03-12 13:13:57.276129,719.721865,0.000719,,,,,,keyboard,probe complete,"{""value"":"""",""note"":""probe complete""}",2,0.008333,120.000000,1
Sergio_G01_CNS-LLF5HT7Y0,cpeeg,offmed_offstim,20260312_130141,2026-03-12 13:01:57.554376,1,6,probe,TRIAL_END,21,2026-03-12 13:13:57.276737,719.722585,0.044624,,,,,,keyboard,,{},2,0.008333,120.000000,1
Sergio_G01_CNS-LLF5HT7Y0,cpeeg,offmed_offstim,20260312_130141,2026-03-12 13:01:57.554376,1,7,probe,TRIAL_CHANGE,22,2026-03-12 13:13:57.321958,719.767209,0.001714,,,,,,keyboard,trial transition,"{""note"":""trial transition""}",2,0.008333,120.000000,1
Sergio_G01_CNS-LLF5HT7Y0,cpeeg,offmed_offstim,20260312_130141,2026-03-12 13:01:57.554376,1,7,probe,TRIAL_START,20,2026-03-12 13:13:57.323549,719.768923,0.059297,,,,,,keyboard,,{},2,0.008333,120.000000,1
Sergio_G01_CNS-LLF5HT7Y0,cpeeg,offmed_offstim,20260312_130141,2026-03-12 13:01:57.554376,1,7,fix1,FIX1_ON,30,2026-03-12 13:13:57.426586,719.828220,3.439622,,,,,,keyboard,,"{""pd_used"":0}",2,0.008333,120.000000,1
Sergio_G01_CNS-LLF5HT7Y0,cpeeg,offmed_offstim,20260312_130141,2026-03-12 13:01:57.554376,1,7,fix1,FIX1_OFF,31,2026-03-12 13:14:00.863913,723.267842,0.051322,,,,,,keyboard,,"{""pd_used"":0}",2,0.008333,120.000000,1
Sergio_G01_CNS-LLF5HT7Y0,cpeeg,offmed_offstim,20260312_130141,2026-03-12 13:01:57.554376,1,7,digit,DIGIT1_ON,141,2026-03-12 13:14:00.915109,723.319163,0.550975,,6,,,,keyboard,digit#1 shown,"{""value"":6,""note"":""digit#1 shown"",""pd_used"":1}",2,0.008333,120.000000,1
Sergio_G01_CNS-LLF5HT7Y0,cpeeg,offmed_offstim,20260312_130141,2026-03-12 13:01:57.554376,1,7,digit,DIGIT1_OFF,146,2026-03-12 13:14:01.466726,723.870138,0.000000,,6,,,,keyboard,digit#1 off,"{""value"":6,""note"":""digit#1 off"",""pd_used"":0}",2,0.008333,120.000000,1
Sergio_G01_CNS-LLF5HT7Y0,cpeeg,offmed_offstim,20260312_130141,2026-03-12 13:01:57.554376,1,7,digit,POSTDIG_FIX1_ON,151,2026-03-12 13:14:01.468127,723.870138,1.805119,,,,,,keyboard,after digit#1,"{""note"":""after digit#1""}",2,0.008333,120.000000,1
Sergio_G01_CNS-LLF5HT7Y0,cpeeg,offmed_offstim,20260312_130141,2026-03-12 13:01:57.554376,1,7,digit,POSTDIG_FIX1_OFF,156,2026-03-12 13:14:03.271848,725.675257,0.053307,,,,,,keyboard,after digit#1,"{""note"":""after digit#1"",""pd_used"":0}",2,0.008333,120.000000,1
Sergio_G01_CNS-LLF5HT7Y0,cpeeg,offmed_offstim,20260312_130141,2026-03-12 13:01:57.554376,1,7,digit,DIGIT2_ON,142,2026-03-12 13:14:03.324057,725.728563,0.550055,,0,,,,keyboard,digit#2 shown,"{""value"":0,""note"":""digit#2 shown"",""pd_used"":1}",2,0.008333,120.000000,1
Sergio_G01_CNS-LLF5HT7Y0,cpeeg,offmed_offstim,20260312_130141,2026-03-12 13:01:57.554376,1,7,digit,DIGIT2_OFF,147,2026-03-12 13:14:03.875229,726.278619,0.000000,,0,,,,keyboard,digit#2 off,"{""value"":0,""note"":""digit#2 off"",""pd_used"":0}",2,0.008333,120.000000,1
Sergio_G01_CNS-LLF5HT7Y0,cpeeg,offmed_offstim,20260312_130141,2026-03-12 13:01:57.554376,1,7,digit,POSTDIG_FIX2_ON,152,2026-03-12 13:14:03.876090,726.278619,2.050793,,,,,,keyboard,after digit#2,"{""note"":""after digit#2""}",2,0.008333,120.000000,1
Sergio_G01_CNS-LLF5HT7Y0,cpeeg,offmed_offstim,20260312_130141,2026-03-12 13:01:57.554376,1,7,digit,POSTDIG_FIX2_OFF,157,2026-03-12 13:14:05.926431,728.329412,0.051630,,,,,,keyboard,after digit#2,"{""note"":""after digit#2"",""pd_used"":0}",2,0.008333,120.000000,1
Sergio_G01_CNS-LLF5HT7Y0,cpeeg,offmed_offstim,20260312_130141,2026-03-12 13:01:57.554376,1,7,digit,DIGIT3_ON,143,2026-03-12 13:14:05.977752,728.381042,0.552356,,2,,,,keyboard,digit#3 shown,"{""value"":2,""note"":""digit#3 shown"",""pd_used"":1}",2,0.008333,120.000000,1
Sergio_G01_CNS-LLF5HT7Y0,cpeeg,offmed_offstim,20260312_130141,2026-03-12 13:01:57.554376,1,7,digit,DIGIT3_OFF,148,2026-03-12 13:14:06.530699,728.933398,0.000000,,2,,,,keyboard,digit#3 off,"{""value"":2,""note"":""digit#3 off"",""pd_used"":0}",2,0.008333,120.000000,1
Sergio_G01_CNS-LLF5HT7Y0,cpeeg,offmed_offstim,20260312_130141,2026-03-12 13:01:57.554376,1,7,digit,POSTDIG_FIX3_ON,153,2026-03-12 13:14:06.531445,728.933398,1.906356,,,,,,keyboard,after digit#3,"{""note"":""after digit#3""}",2,0.008333,120.000000,1
Sergio_G01_CNS-LLF5HT7Y0,cpeeg,offmed_offstim,20260312_130141,2026-03-12 13:01:57.554376,1,7,digit,POSTDIG_FIX3_OFF,158,2026-03-12 13:14:08.436634,730.839753,0.052561,,,,,,keyboard,after digit#3,"{""note"":""after digit#3"",""pd_used"":0}",2,0.008333,120.000000,1
Sergio_G01_CNS-LLF5HT7Y0,cpeeg,offmed_offstim,20260312_130141,2026-03-12 13:01:57.554376,1,7,digit,DIGIT4_ON,144,2026-03-12 13:14:08.490395,730.892314,0.553377,,3,,,,keyboard,digit#4 shown,"{""value"":3,""note"":""digit#4 shown"",""pd_used"":1}",2,0.008333,120.000000,1
Sergio_G01_CNS-LLF5HT7Y0,cpeeg,offmed_offstim,20260312_130141,2026-03-12 13:01:57.554376,1,7,digit,DIGIT4_OFF,149,2026-03-12 13:14:09.043256,731.445691,0.000000,,3,,,,keyboard,digit#4 off,"{""value"":3,""note"":""digit#4 off"",""pd_used"":0}",2,0.008333,120.000000,1
Sergio_G01_CNS-LLF5HT7Y0,cpeeg,offmed_offstim,20260312_130141,2026-03-12 13:01:57.554376,1,7,digit,POSTDIG_FIX4_ON,154,2026-03-12 13:14:09.045016,731.445691,1.669078,,,,,,keyboard,after digit#4,"{""note"":""after digit#4""}",2,0.008333,120.000000,1
Sergio_G01_CNS-LLF5HT7Y0,cpeeg,offmed_offstim,20260312_130141,2026-03-12 13:01:57.554376,1,7,digit,POSTDIG_FIX4_OFF,159,2026-03-12 13:14:10.711001,733.114770,0.050799,,,,,,keyboard,after digit#4,"{""note"":""after digit#4"",""pd_used"":0}",2,0.008333,120.000000,1
Sergio_G01_CNS-LLF5HT7Y0,cpeeg,offmed_offstim,20260312_130141,2026-03-12 13:01:57.554376,1,7,digit,DIGIT5_ON,145,2026-03-12 13:14:10.763135,733.165569,0.552996,,4,,,,keyboard,digit#5 shown,"{""value"":4,""note"":""digit#5 shown"",""pd_used"":1}",2,0.008333,120.000000,1
Sergio_G01_CNS-LLF5HT7Y0,cpeeg,offmed_offstim,20260312_130141,2026-03-12 13:01:57.554376,1,7,digit,DIGIT5_OFF,150,2026-03-12 13:14:11.314807,733.718565,0.000000,,4,,,,keyboard,digit#5 off,"{""value"":4,""note"":""digit#5 off"",""pd_used"":0}",2,0.008333,120.000000,1
Sergio_G01_CNS-LLF5HT7Y0,cpeeg,offmed_offstim,20260312_130141,2026-03-12 13:01:57.554376,1,7,digit,POSTDIG_FIX5_ON,155,2026-03-12 13:14:11.315832,733.718565,3.460755,,,,,,keyboard,after digit#5,"{""note"":""after digit#5""}",2,0.008333,120.000000,1
Sergio_G01_CNS-LLF5HT7Y0,cpeeg,offmed_offstim,20260312_130141,2026-03-12 13:01:57.554376,1,7,digit,POSTDIG_FIX5_OFF,160,2026-03-12 13:14:14.776910,737.179320,0.053531,,,,,,keyboard,after digit#5,"{""note"":""after digit#5"",""pd_used"":0}",2,0.008333,120.000000,1
Sergio_G01_CNS-LLF5HT7Y0,cpeeg,offmed_offstim,20260312_130141,2026-03-12 13:01:57.554376,1,7,distractor,DISTRACTOR_ON,50,2026-03-12 13:14:14.829637,737.232851,10.020996,,5+1=6,,,,keyboard,,"{""value"":""5+1=6"",""isCorrectTruth"":true,""trueSum"":6,""pd_used"":1}",2,0.008333,120.000000,1
